#
# Results on Thu, 23 Jan 2025 14:43:19 GMT
# USER AGENT: Mozilla/5.0 (Windows NT 10.0; Win64; x64; rv:134.0) Gecko/20100101 Firefox/134.0
# Design number was non-random = 0
#
# Columns below this comment are as follows:
# 1. Results reception time.
# 2. MD5 hash of participant's IP address.
# 3. Controller name.
# 4. Order number of item.
# 5. Inner element number.
# 6. Label.
# 7. Latin Square Group.
# 8. PennElementType.
# 9. PennElementName.
# 10. Parameter.
# 11. Value.
# 12. EventTime.
# 13. Comments.
1737643399,bc2584302fffead698e1809107a60040,PennController,0,0,TCLE,NULL,PennController,0,_Trial_,Start,1737642588698,NULL
1737643399,bc2584302fffead698e1809107a60040,PennController,0,0,TCLE,NULL,PennController,0,_Trial_,End,1737642633603,NULL
1737643399,bc2584302fffead698e1809107a60040,PennController,3,0,instrucoes,NULL,PennController,3,_Trial_,Start,1737642633607,NULL
1737643399,bc2584302fffead698e1809107a60040,PennController,3,0,instrucoes,NULL,PennController,3,_Trial_,End,1737642635233,NULL
1737643399,bc2584302fffead698e1809107a60040,PennController,1,0,genero,NULL,PennController,1,_Trial_,Start,1737642635234,NULL
1737643399,bc2584302fffead698e1809107a60040,PennController,1,0,genero,NULL,DropDown,selecionaGenero,Selected,Masculino,1737642636720,0
1737643399,bc2584302fffead698e1809107a60040,PennController,1,0,genero,NULL,PennController,1,_Trial_,End,1737642637587,NULL
1737643399,bc2584302fffead698e1809107a60040,PennController,4,0,frases,NULL,PennController,5,_Trial_,Start,1737642637588,NULL
1737643399,bc2584302fffead698e1809107a60040,PennController,4,0,frases,NULL,Selector,classificacao,Selection,negativa,1737642639809,negativa;neutra;positiva
1737643399,bc2584302fffead698e1809107a60040,PennController,4,0,frases,NULL,PennController,5,_Trial_,End,1737642639810,NULL
1737643399,bc2584302fffead698e1809107a60040,PennController,5,0,frases,NULL,PennController,6,_Trial_,Start,1737642639811,NULL
1737643399,bc2584302fffead698e1809107a60040,PennController,5,0,frases,NULL,Selector,classificacao,Selection,negativa,1737642644217,negativa;neutra;positiva
1737643399,bc2584302fffead698e1809107a60040,PennController,5,0,frases,NULL,PennController,6,_Trial_,End,1737642644218,NULL
1737643399,bc2584302fffead698e1809107a60040,PennController,6,0,frases,NULL,PennController,7,_Trial_,Start,1737642644219,NULL
1737643399,bc2584302fffead698e1809107a60040,PennController,6,0,frases,NULL,Selector,classificacao,Selection,negativa,1737642645920,negativa;neutra;positiva
1737643399,bc2584302fffead698e1809107a60040,PennController,6,0,frases,NULL,PennController,7,_Trial_,End,1737642645922,NULL
1737643399,bc2584302fffead698e1809107a60040,PennController,7,0,frases,NULL,PennController,8,_Trial_,Start,1737642645922,NULL
1737643399,bc2584302fffead698e1809107a60040,PennController,7,0,frases,NULL,Selector,classificacao,Selection,neutra,1737642648186,negativa;neutra;positiva
1737643399,bc2584302fffead698e1809107a60040,PennController,7,0,frases,NULL,PennController,8,_Trial_,End,1737642648186,NULL
1737643399,bc2584302fffead698e1809107a60040,PennController,8,0,frases,NULL,PennController,9,_Trial_,Start,1737642648187,NULL
1737643399,bc2584302fffead698e1809107a60040,PennController,8,0,frases,NULL,Selector,classificacao,Selection,neutra,1737642656425,negativa;neutra;positiva
1737643399,bc2584302fffead698e1809107a60040,PennController,8,0,frases,NULL,PennController,9,_Trial_,End,1737642656426,NULL
1737643399,bc2584302fffead698e1809107a60040,PennController,9,0,frases,NULL,PennController,10,_Trial_,Start,1737642656427,NULL
1737643399,bc2584302fffead698e1809107a60040,PennController,9,0,frases,NULL,Selector,classificacao,Selection,negativa,1737642660578,negativa;neutra;positiva
1737643399,bc2584302fffead698e1809107a60040,PennController,9,0,frases,NULL,PennController,10,_Trial_,End,1737642660579,NULL
1737643399,bc2584302fffead698e1809107a60040,PennController,10,0,frases,NULL,PennController,11,_Trial_,Start,1737642660582,NULL
1737643399,bc2584302fffead698e1809107a60040,PennController,10,0,frases,NULL,Selector,classificacao,Selection,negativa,1737642662977,negativa;neutra;positiva
1737643399,bc2584302fffead698e1809107a60040,PennController,10,0,frases,NULL,PennController,11,_Trial_,End,1737642662977,NULL
1737643399,bc2584302fffead698e1809107a60040,PennController,11,0,frases,NULL,PennController,12,_Trial_,Start,1737642662978,NULL
1737643399,bc2584302fffead698e1809107a60040,PennController,11,0,frases,NULL,Selector,classificacao,Selection,negativa,1737642665472,negativa;neutra;positiva
1737643399,bc2584302fffead698e1809107a60040,PennController,11,0,frases,NULL,PennController,12,_Trial_,End,1737642665473,NULL
1737643399,bc2584302fffead698e1809107a60040,PennController,12,0,frases,NULL,PennController,13,_Trial_,Start,1737642665474,NULL
1737643399,bc2584302fffead698e1809107a60040,PennController,12,0,frases,NULL,Selector,classificacao,Selection,neutra,1737642669225,negativa;neutra;positiva
1737643399,bc2584302fffead698e1809107a60040,PennController,12,0,frases,NULL,PennController,13,_Trial_,End,1737642669226,NULL
1737643399,bc2584302fffead698e1809107a60040,PennController,13,0,frases,NULL,PennController,14,_Trial_,Start,1737642669227,NULL
1737643399,bc2584302fffead698e1809107a60040,PennController,13,0,frases,NULL,Selector,classificacao,Selection,negativa,1737642678024,negativa;neutra;positiva
1737643399,bc2584302fffead698e1809107a60040,PennController,13,0,frases,NULL,PennController,14,_Trial_,End,1737642678025,NULL
1737643399,bc2584302fffead698e1809107a60040,PennController,14,0,frases,NULL,PennController,15,_Trial_,Start,1737642678026,NULL
1737643399,bc2584302fffead698e1809107a60040,PennController,14,0,frases,NULL,Selector,classificacao,Selection,negativa,1737642682112,negativa;neutra;positiva
1737643399,bc2584302fffead698e1809107a60040,PennController,14,0,frases,NULL,PennController,15,_Trial_,End,1737642682113,NULL
1737643399,bc2584302fffead698e1809107a60040,PennController,15,0,frases,NULL,PennController,16,_Trial_,Start,1737642682114,NULL
1737643399,bc2584302fffead698e1809107a60040,PennController,15,0,frases,NULL,Selector,classificacao,Selection,positiva,1737642684273,negativa;neutra;positiva
1737643399,bc2584302fffead698e1809107a60040,PennController,15,0,frases,NULL,PennController,16,_Trial_,End,1737642684274,NULL
1737643399,bc2584302fffead698e1809107a60040,PennController,16,0,frases,NULL,PennController,17,_Trial_,Start,1737642684275,NULL
1737643399,bc2584302fffead698e1809107a60040,PennController,16,0,frases,NULL,Selector,classificacao,Selection,negativa,1737642692466,negativa;neutra;positiva
1737643399,bc2584302fffead698e1809107a60040,PennController,16,0,frases,NULL,PennController,17,_Trial_,End,1737642692467,NULL
1737643399,bc2584302fffead698e1809107a60040,PennController,17,0,frases,NULL,PennController,18,_Trial_,Start,1737642692467,NULL
1737643399,bc2584302fffead698e1809107a60040,PennController,17,0,frases,NULL,Selector,classificacao,Selection,negativa,1737642697016,negativa;neutra;positiva
1737643399,bc2584302fffead698e1809107a60040,PennController,17,0,frases,NULL,PennController,18,_Trial_,End,1737642697016,NULL
1737643399,bc2584302fffead698e1809107a60040,PennController,18,0,frases,NULL,PennController,19,_Trial_,Start,1737642697017,NULL
1737643399,bc2584302fffead698e1809107a60040,PennController,18,0,frases,NULL,Selector,classificacao,Selection,positiva,1737642699786,negativa;neutra;positiva
1737643399,bc2584302fffead698e1809107a60040,PennController,18,0,frases,NULL,PennController,19,_Trial_,End,1737642699786,NULL
1737643399,bc2584302fffead698e1809107a60040,PennController,19,0,frases,NULL,PennController,20,_Trial_,Start,1737642699787,NULL
1737643399,bc2584302fffead698e1809107a60040,PennController,19,0,frases,NULL,Selector,classificacao,Selection,negativa,1737642704408,negativa;neutra;positiva
1737643399,bc2584302fffead698e1809107a60040,PennController,19,0,frases,NULL,PennController,20,_Trial_,End,1737642704409,NULL
1737643399,bc2584302fffead698e1809107a60040,PennController,20,0,frases,NULL,PennController,21,_Trial_,Start,1737642704409,NULL
1737643399,bc2584302fffead698e1809107a60040,PennController,20,0,frases,NULL,Selector,classificacao,Selection,negativa,1737642709560,negativa;neutra;positiva
1737643399,bc2584302fffead698e1809107a60040,PennController,20,0,frases,NULL,PennController,21,_Trial_,End,1737642709561,NULL
1737643399,bc2584302fffead698e1809107a60040,PennController,21,0,frases,NULL,PennController,22,_Trial_,Start,1737642709561,NULL
1737643399,bc2584302fffead698e1809107a60040,PennController,21,0,frases,NULL,Selector,classificacao,Selection,neutra,1737642713385,negativa;neutra;positiva
1737643399,bc2584302fffead698e1809107a60040,PennController,21,0,frases,NULL,PennController,22,_Trial_,End,1737642713386,NULL
1737643399,bc2584302fffead698e1809107a60040,PennController,22,0,frases,NULL,PennController,23,_Trial_,Start,1737642713387,NULL
1737643399,bc2584302fffead698e1809107a60040,PennController,22,0,frases,NULL,Selector,classificacao,Selection,neutra,1737642716321,negativa;neutra;positiva
1737643399,bc2584302fffead698e1809107a60040,PennController,22,0,frases,NULL,PennController,23,_Trial_,End,1737642716322,NULL
1737643399,bc2584302fffead698e1809107a60040,PennController,23,0,frases,NULL,PennController,24,_Trial_,Start,1737642716323,NULL
1737643399,bc2584302fffead698e1809107a60040,PennController,23,0,frases,NULL,Selector,classificacao,Selection,neutra,1737642723151,negativa;neutra;positiva
1737643399,bc2584302fffead698e1809107a60040,PennController,23,0,frases,NULL,PennController,24,_Trial_,End,1737642723152,NULL
1737643399,bc2584302fffead698e1809107a60040,PennController,24,0,frases,NULL,PennController,25,_Trial_,Start,1737642723153,NULL
1737643399,bc2584302fffead698e1809107a60040,PennController,24,0,frases,NULL,Selector,classificacao,Selection,negativa,1737642728655,negativa;neutra;positiva
1737643399,bc2584302fffead698e1809107a60040,PennController,24,0,frases,NULL,PennController,25,_Trial_,End,1737642728656,NULL
1737643399,bc2584302fffead698e1809107a60040,PennController,25,0,frases,NULL,PennController,26,_Trial_,Start,1737642728657,NULL
1737643399,bc2584302fffead698e1809107a60040,PennController,25,0,frases,NULL,Selector,classificacao,Selection,neutra,1737642731328,negativa;neutra;positiva
1737643399,bc2584302fffead698e1809107a60040,PennController,25,0,frases,NULL,PennController,26,_Trial_,End,1737642731329,NULL
1737643399,bc2584302fffead698e1809107a60040,PennController,26,0,frases,NULL,PennController,27,_Trial_,Start,1737642731329,NULL
1737643399,bc2584302fffead698e1809107a60040,PennController,26,0,frases,NULL,Selector,classificacao,Selection,negativa,1737642735680,negativa;neutra;positiva
1737643399,bc2584302fffead698e1809107a60040,PennController,26,0,frases,NULL,PennController,27,_Trial_,End,1737642735681,NULL
1737643399,bc2584302fffead698e1809107a60040,PennController,27,0,frases,NULL,PennController,28,_Trial_,Start,1737642735682,NULL
1737643399,bc2584302fffead698e1809107a60040,PennController,27,0,frases,NULL,Selector,classificacao,Selection,negativa,1737642738671,negativa;neutra;positiva
1737643399,bc2584302fffead698e1809107a60040,PennController,27,0,frases,NULL,PennController,28,_Trial_,End,1737642738672,NULL
1737643399,bc2584302fffead698e1809107a60040,PennController,28,0,frases,NULL,PennController,29,_Trial_,Start,1737642738673,NULL
1737643399,bc2584302fffead698e1809107a60040,PennController,28,0,frases,NULL,Selector,classificacao,Selection,negativa,1737642742000,negativa;neutra;positiva
1737643399,bc2584302fffead698e1809107a60040,PennController,28,0,frases,NULL,PennController,29,_Trial_,End,1737642742001,NULL
1737643399,bc2584302fffead698e1809107a60040,PennController,29,0,frases,NULL,PennController,30,_Trial_,Start,1737642742001,NULL
1737643399,bc2584302fffead698e1809107a60040,PennController,29,0,frases,NULL,Selector,classificacao,Selection,neutra,1737642746280,negativa;neutra;positiva
1737643399,bc2584302fffead698e1809107a60040,PennController,29,0,frases,NULL,PennController,30,_Trial_,End,1737642746281,NULL
1737643399,bc2584302fffead698e1809107a60040,PennController,30,0,frases,NULL,PennController,31,_Trial_,Start,1737642746282,NULL
1737643399,bc2584302fffead698e1809107a60040,PennController,30,0,frases,NULL,Selector,classificacao,Selection,positiva,1737642747809,negativa;neutra;positiva
1737643399,bc2584302fffead698e1809107a60040,PennController,30,0,frases,NULL,PennController,31,_Trial_,End,1737642747809,NULL
1737643399,bc2584302fffead698e1809107a60040,PennController,31,0,frases,NULL,PennController,32,_Trial_,Start,1737642747809,NULL
1737643399,bc2584302fffead698e1809107a60040,PennController,31,0,frases,NULL,Selector,classificacao,Selection,negativa,1737642751417,negativa;neutra;positiva
1737643399,bc2584302fffead698e1809107a60040,PennController,31,0,frases,NULL,PennController,32,_Trial_,End,1737642751417,NULL
1737643399,bc2584302fffead698e1809107a60040,PennController,32,0,frases,NULL,PennController,33,_Trial_,Start,1737642751418,NULL
1737643399,bc2584302fffead698e1809107a60040,PennController,32,0,frases,NULL,Selector,classificacao,Selection,positiva,1737642753496,negativa;neutra;positiva
1737643399,bc2584302fffead698e1809107a60040,PennController,32,0,frases,NULL,PennController,33,_Trial_,End,1737642753497,NULL
1737643399,bc2584302fffead698e1809107a60040,PennController,33,0,frases,NULL,PennController,34,_Trial_,Start,1737642753498,NULL
1737643399,bc2584302fffead698e1809107a60040,PennController,33,0,frases,NULL,Selector,classificacao,Selection,negativa,1737642759472,negativa;neutra;positiva
1737643399,bc2584302fffead698e1809107a60040,PennController,33,0,frases,NULL,PennController,34,_Trial_,End,1737642759472,NULL
1737643399,bc2584302fffead698e1809107a60040,PennController,34,0,frases,NULL,PennController,35,_Trial_,Start,1737642759472,NULL
1737643399,bc2584302fffead698e1809107a60040,PennController,34,0,frases,NULL,Selector,classificacao,Selection,negativa,1737642764992,negativa;neutra;positiva
1737643399,bc2584302fffead698e1809107a60040,PennController,34,0,frases,NULL,PennController,35,_Trial_,End,1737642764992,NULL
1737643399,bc2584302fffead698e1809107a60040,PennController,35,0,frases,NULL,PennController,36,_Trial_,Start,1737642764993,NULL
1737643399,bc2584302fffead698e1809107a60040,PennController,35,0,frases,NULL,Selector,classificacao,Selection,negativa,1737642766591,negativa;neutra;positiva
1737643399,bc2584302fffead698e1809107a60040,PennController,35,0,frases,NULL,PennController,36,_Trial_,End,1737642766592,NULL
1737643399,bc2584302fffead698e1809107a60040,PennController,36,0,frases,NULL,PennController,37,_Trial_,Start,1737642766592,NULL
1737643399,bc2584302fffead698e1809107a60040,PennController,36,0,frases,NULL,Selector,classificacao,Selection,positiva,1737642771159,negativa;neutra;positiva
1737643399,bc2584302fffead698e1809107a60040,PennController,36,0,frases,NULL,PennController,37,_Trial_,End,1737642771160,NULL
1737643399,bc2584302fffead698e1809107a60040,PennController,37,0,frases,NULL,PennController,38,_Trial_,Start,1737642771160,NULL
1737643399,bc2584302fffead698e1809107a60040,PennController,37,0,frases,NULL,Selector,classificacao,Selection,positiva,1737642774447,negativa;neutra;positiva
1737643399,bc2584302fffead698e1809107a60040,PennController,37,0,frases,NULL,PennController,38,_Trial_,End,1737642774448,NULL
1737643399,bc2584302fffead698e1809107a60040,PennController,38,0,frases,NULL,PennController,39,_Trial_,Start,1737642774448,NULL
1737643399,bc2584302fffead698e1809107a60040,PennController,38,0,frases,NULL,Selector,classificacao,Selection,neutra,1737642777904,negativa;neutra;positiva
1737643399,bc2584302fffead698e1809107a60040,PennController,38,0,frases,NULL,PennController,39,_Trial_,End,1737642777905,NULL
1737643399,bc2584302fffead698e1809107a60040,PennController,39,0,frases,NULL,PennController,40,_Trial_,Start,1737642777905,NULL
1737643399,bc2584302fffead698e1809107a60040,PennController,39,0,frases,NULL,Selector,classificacao,Selection,positiva,1737642779383,negativa;neutra;positiva
1737643399,bc2584302fffead698e1809107a60040,PennController,39,0,frases,NULL,PennController,40,_Trial_,End,1737642779385,NULL
1737643399,bc2584302fffead698e1809107a60040,PennController,40,0,frases,NULL,PennController,41,_Trial_,Start,1737642779386,NULL
1737643399,bc2584302fffead698e1809107a60040,PennController,40,0,frases,NULL,Selector,classificacao,Selection,positiva,1737642781943,negativa;neutra;positiva
1737643399,bc2584302fffead698e1809107a60040,PennController,40,0,frases,NULL,PennController,41,_Trial_,End,1737642781944,NULL
1737643399,bc2584302fffead698e1809107a60040,PennController,41,0,frases,NULL,PennController,42,_Trial_,Start,1737642781945,NULL
1737643399,bc2584302fffead698e1809107a60040,PennController,41,0,frases,NULL,Selector,classificacao,Selection,neutra,1737642784536,negativa;neutra;positiva
1737643399,bc2584302fffead698e1809107a60040,PennController,41,0,frases,NULL,PennController,42,_Trial_,End,1737642784536,NULL
1737643399,bc2584302fffead698e1809107a60040,PennController,42,0,frases,NULL,PennController,43,_Trial_,Start,1737642784537,NULL
1737643399,bc2584302fffead698e1809107a60040,PennController,42,0,frases,NULL,Selector,classificacao,Selection,negativa,1737642787567,negativa;neutra;positiva
1737643399,bc2584302fffead698e1809107a60040,PennController,42,0,frases,NULL,PennController,43,_Trial_,End,1737642787568,NULL
1737643399,bc2584302fffead698e1809107a60040,PennController,43,0,frases,NULL,PennController,44,_Trial_,Start,1737642787569,NULL
1737643399,bc2584302fffead698e1809107a60040,PennController,43,0,frases,NULL,Selector,classificacao,Selection,neutra,1737642789959,negativa;neutra;positiva
1737643399,bc2584302fffead698e1809107a60040,PennController,43,0,frases,NULL,PennController,44,_Trial_,End,1737642789959,NULL
1737643399,bc2584302fffead698e1809107a60040,PennController,44,0,frases,NULL,PennController,45,_Trial_,Start,1737642789960,NULL
1737643399,bc2584302fffead698e1809107a60040,PennController,44,0,frases,NULL,Selector,classificacao,Selection,positiva,1737642794095,negativa;neutra;positiva
1737643399,bc2584302fffead698e1809107a60040,PennController,44,0,frases,NULL,PennController,45,_Trial_,End,1737642794096,NULL
1737643399,bc2584302fffead698e1809107a60040,PennController,45,0,frases,NULL,PennController,46,_Trial_,Start,1737642794097,NULL
1737643399,bc2584302fffead698e1809107a60040,PennController,45,0,frases,NULL,Selector,classificacao,Selection,positiva,1737642801385,negativa;neutra;positiva
1737643399,bc2584302fffead698e1809107a60040,PennController,45,0,frases,NULL,PennController,46,_Trial_,End,1737642801385,NULL
1737643399,bc2584302fffead698e1809107a60040,PennController,46,0,frases,NULL,PennController,47,_Trial_,Start,1737642801386,NULL
1737643399,bc2584302fffead698e1809107a60040,PennController,46,0,frases,NULL,Selector,classificacao,Selection,negativa,1737642803361,negativa;neutra;positiva
1737643399,bc2584302fffead698e1809107a60040,PennController,46,0,frases,NULL,PennController,47,_Trial_,End,1737642803362,NULL
1737643399,bc2584302fffead698e1809107a60040,PennController,47,0,frases,NULL,PennController,48,_Trial_,Start,1737642803362,NULL
1737643399,bc2584302fffead698e1809107a60040,PennController,47,0,frases,NULL,Selector,classificacao,Selection,positiva,1737642810495,negativa;neutra;positiva
1737643399,bc2584302fffead698e1809107a60040,PennController,47,0,frases,NULL,PennController,48,_Trial_,End,1737642810496,NULL
1737643399,bc2584302fffead698e1809107a60040,PennController,48,0,frases,NULL,PennController,49,_Trial_,Start,1737642810496,NULL
1737643399,bc2584302fffead698e1809107a60040,PennController,48,0,frases,NULL,Selector,classificacao,Selection,neutra,1737642812588,negativa;neutra;positiva
1737643399,bc2584302fffead698e1809107a60040,PennController,48,0,frases,NULL,PennController,49,_Trial_,End,1737642812589,NULL
1737643399,bc2584302fffead698e1809107a60040,PennController,49,0,frases,NULL,PennController,50,_Trial_,Start,1737642812590,NULL
1737643399,bc2584302fffead698e1809107a60040,PennController,49,0,frases,NULL,Selector,classificacao,Selection,negativa,1737642818024,negativa;neutra;positiva
1737643399,bc2584302fffead698e1809107a60040,PennController,49,0,frases,NULL,PennController,50,_Trial_,End,1737642818024,NULL
1737643399,bc2584302fffead698e1809107a60040,PennController,50,0,frases,NULL,PennController,51,_Trial_,Start,1737642818025,NULL
1737643399,bc2584302fffead698e1809107a60040,PennController,50,0,frases,NULL,Selector,classificacao,Selection,negativa,1737642819343,negativa;neutra;positiva
1737643399,bc2584302fffead698e1809107a60040,PennController,50,0,frases,NULL,PennController,51,_Trial_,End,1737642819344,NULL
1737643399,bc2584302fffead698e1809107a60040,PennController,51,0,frases,NULL,PennController,52,_Trial_,Start,1737642819344,NULL
1737643399,bc2584302fffead698e1809107a60040,PennController,51,0,frases,NULL,Selector,classificacao,Selection,positiva,1737642822879,negativa;neutra;positiva
1737643399,bc2584302fffead698e1809107a60040,PennController,51,0,frases,NULL,PennController,52,_Trial_,End,1737642822879,NULL
1737643399,bc2584302fffead698e1809107a60040,PennController,52,0,frases,NULL,PennController,53,_Trial_,Start,1737642822880,NULL
1737643399,bc2584302fffead698e1809107a60040,PennController,52,0,frases,NULL,Selector,classificacao,Selection,neutra,1737642825719,negativa;neutra;positiva
1737643399,bc2584302fffead698e1809107a60040,PennController,52,0,frases,NULL,PennController,53,_Trial_,End,1737642825720,NULL
1737643399,bc2584302fffead698e1809107a60040,PennController,53,0,frases,NULL,PennController,54,_Trial_,Start,1737642825721,NULL
1737643399,bc2584302fffead698e1809107a60040,PennController,53,0,frases,NULL,Selector,classificacao,Selection,positiva,1737642827464,negativa;neutra;positiva
1737643399,bc2584302fffead698e1809107a60040,PennController,53,0,frases,NULL,PennController,54,_Trial_,End,1737642827465,NULL
1737643399,bc2584302fffead698e1809107a60040,PennController,54,0,frases,NULL,PennController,55,_Trial_,Start,1737642827465,NULL
1737643399,bc2584302fffead698e1809107a60040,PennController,54,0,frases,NULL,Selector,classificacao,Selection,neutra,1737642830088,negativa;neutra;positiva
1737643399,bc2584302fffead698e1809107a60040,PennController,54,0,frases,NULL,PennController,55,_Trial_,End,1737642830089,NULL
1737643399,bc2584302fffead698e1809107a60040,PennController,55,0,frases,NULL,PennController,56,_Trial_,Start,1737642830089,NULL
1737643399,bc2584302fffead698e1809107a60040,PennController,55,0,frases,NULL,Selector,classificacao,Selection,negativa,1737642834768,negativa;neutra;positiva
1737643399,bc2584302fffead698e1809107a60040,PennController,55,0,frases,NULL,PennController,56,_Trial_,End,1737642834768,NULL
1737643399,bc2584302fffead698e1809107a60040,PennController,56,0,frases,NULL,PennController,57,_Trial_,Start,1737642834769,NULL
1737643399,bc2584302fffead698e1809107a60040,PennController,56,0,frases,NULL,Selector,classificacao,Selection,neutra,1737642838831,negativa;neutra;positiva
1737643399,bc2584302fffead698e1809107a60040,PennController,56,0,frases,NULL,PennController,57,_Trial_,End,1737642838831,NULL
1737643399,bc2584302fffead698e1809107a60040,PennController,57,0,frases,NULL,PennController,58,_Trial_,Start,1737642838831,NULL
1737643399,bc2584302fffead698e1809107a60040,PennController,57,0,frases,NULL,Selector,classificacao,Selection,positiva,1737642841654,negativa;neutra;positiva
1737643399,bc2584302fffead698e1809107a60040,PennController,57,0,frases,NULL,PennController,58,_Trial_,End,1737642841655,NULL
1737643399,bc2584302fffead698e1809107a60040,PennController,58,0,frases,NULL,PennController,59,_Trial_,Start,1737642841656,NULL
1737643399,bc2584302fffead698e1809107a60040,PennController,58,0,frases,NULL,Selector,classificacao,Selection,positiva,1737642844591,negativa;neutra;positiva
1737643399,bc2584302fffead698e1809107a60040,PennController,58,0,frases,NULL,PennController,59,_Trial_,End,1737642844592,NULL
1737643399,bc2584302fffead698e1809107a60040,PennController,59,0,frases,NULL,PennController,60,_Trial_,Start,1737642844592,NULL
1737643399,bc2584302fffead698e1809107a60040,PennController,59,0,frases,NULL,Selector,classificacao,Selection,positiva,1737642847303,negativa;neutra;positiva
1737643399,bc2584302fffead698e1809107a60040,PennController,59,0,frases,NULL,PennController,60,_Trial_,End,1737642847303,NULL
1737643399,bc2584302fffead698e1809107a60040,PennController,60,0,frases,NULL,PennController,61,_Trial_,Start,1737642847304,NULL
1737643399,bc2584302fffead698e1809107a60040,PennController,60,0,frases,NULL,Selector,classificacao,Selection,positiva,1737642850088,negativa;neutra;positiva
1737643399,bc2584302fffead698e1809107a60040,PennController,60,0,frases,NULL,PennController,61,_Trial_,End,1737642850089,NULL
1737643399,bc2584302fffead698e1809107a60040,PennController,61,0,frases,NULL,PennController,62,_Trial_,Start,1737642850089,NULL
1737643399,bc2584302fffead698e1809107a60040,PennController,61,0,frases,NULL,Selector,classificacao,Selection,neutra,1737642852791,negativa;neutra;positiva
1737643399,bc2584302fffead698e1809107a60040,PennController,61,0,frases,NULL,PennController,62,_Trial_,End,1737642852791,NULL
1737643399,bc2584302fffead698e1809107a60040,PennController,62,0,frases,NULL,PennController,63,_Trial_,Start,1737642852792,NULL
1737643399,bc2584302fffead698e1809107a60040,PennController,62,0,frases,NULL,Selector,classificacao,Selection,neutra,1737642856455,negativa;neutra;positiva
1737643399,bc2584302fffead698e1809107a60040,PennController,62,0,frases,NULL,PennController,63,_Trial_,End,1737642856455,NULL
1737643399,bc2584302fffead698e1809107a60040,PennController,63,0,frases,NULL,PennController,64,_Trial_,Start,1737642856456,NULL
1737643399,bc2584302fffead698e1809107a60040,PennController,63,0,frases,NULL,Selector,classificacao,Selection,neutra,1737642857975,negativa;neutra;positiva
1737643399,bc2584302fffead698e1809107a60040,PennController,63,0,frases,NULL,PennController,64,_Trial_,End,1737642857975,NULL
1737643399,bc2584302fffead698e1809107a60040,PennController,64,0,frases,NULL,PennController,65,_Trial_,Start,1737642857976,NULL
1737643399,bc2584302fffead698e1809107a60040,PennController,64,0,frases,NULL,Selector,classificacao,Selection,neutra,1737642859711,negativa;neutra;positiva
1737643399,bc2584302fffead698e1809107a60040,PennController,64,0,frases,NULL,PennController,65,_Trial_,End,1737642859711,NULL
1737643399,bc2584302fffead698e1809107a60040,PennController,65,0,frases,NULL,PennController,66,_Trial_,Start,1737642859712,NULL
1737643399,bc2584302fffead698e1809107a60040,PennController,65,0,frases,NULL,Selector,classificacao,Selection,negativa,1737642864208,negativa;neutra;positiva
1737643399,bc2584302fffead698e1809107a60040,PennController,65,0,frases,NULL,PennController,66,_Trial_,End,1737642864208,NULL
1737643399,bc2584302fffead698e1809107a60040,PennController,66,0,frases,NULL,PennController,67,_Trial_,Start,1737642864209,NULL
1737643399,bc2584302fffead698e1809107a60040,PennController,66,0,frases,NULL,Selector,classificacao,Selection,negativa,1737642866407,negativa;neutra;positiva
1737643399,bc2584302fffead698e1809107a60040,PennController,66,0,frases,NULL,PennController,67,_Trial_,End,1737642866408,NULL
1737643399,bc2584302fffead698e1809107a60040,PennController,67,0,frases,NULL,PennController,68,_Trial_,Start,1737642866409,NULL
1737643399,bc2584302fffead698e1809107a60040,PennController,67,0,frases,NULL,Selector,classificacao,Selection,positiva,1737642868320,negativa;neutra;positiva
1737643399,bc2584302fffead698e1809107a60040,PennController,67,0,frases,NULL,PennController,68,_Trial_,End,1737642868321,NULL
1737643399,bc2584302fffead698e1809107a60040,PennController,68,0,frases,NULL,PennController,69,_Trial_,Start,1737642868321,NULL
1737643399,bc2584302fffead698e1809107a60040,PennController,68,0,frases,NULL,Selector,classificacao,Selection,neutra,1737642879416,negativa;neutra;positiva
1737643399,bc2584302fffead698e1809107a60040,PennController,68,0,frases,NULL,PennController,69,_Trial_,End,1737642879417,NULL
1737643399,bc2584302fffead698e1809107a60040,PennController,69,0,frases,NULL,PennController,70,_Trial_,Start,1737642879417,NULL
1737643399,bc2584302fffead698e1809107a60040,PennController,69,0,frases,NULL,Selector,classificacao,Selection,negativa,1737642882976,negativa;neutra;positiva
1737643399,bc2584302fffead698e1809107a60040,PennController,69,0,frases,NULL,PennController,70,_Trial_,End,1737642882976,NULL
1737643399,bc2584302fffead698e1809107a60040,PennController,70,0,frases,NULL,PennController,71,_Trial_,Start,1737642882977,NULL
1737643399,bc2584302fffead698e1809107a60040,PennController,70,0,frases,NULL,Selector,classificacao,Selection,negativa,1737642886654,negativa;neutra;positiva
1737643399,bc2584302fffead698e1809107a60040,PennController,70,0,frases,NULL,PennController,71,_Trial_,End,1737642886655,NULL
1737643399,bc2584302fffead698e1809107a60040,PennController,71,0,frases,NULL,PennController,72,_Trial_,Start,1737642886656,NULL
1737643399,bc2584302fffead698e1809107a60040,PennController,71,0,frases,NULL,Selector,classificacao,Selection,neutra,1737642888176,negativa;neutra;positiva
1737643399,bc2584302fffead698e1809107a60040,PennController,71,0,frases,NULL,PennController,72,_Trial_,End,1737642888176,NULL
1737643399,bc2584302fffead698e1809107a60040,PennController,72,0,frases,NULL,PennController,73,_Trial_,Start,1737642888177,NULL
1737643399,bc2584302fffead698e1809107a60040,PennController,72,0,frases,NULL,Selector,classificacao,Selection,negativa,1737642891207,negativa;neutra;positiva
1737643399,bc2584302fffead698e1809107a60040,PennController,72,0,frases,NULL,PennController,73,_Trial_,End,1737642891207,NULL
1737643399,bc2584302fffead698e1809107a60040,PennController,73,0,frases,NULL,PennController,74,_Trial_,Start,1737642891207,NULL
1737643399,bc2584302fffead698e1809107a60040,PennController,73,0,frases,NULL,Selector,classificacao,Selection,negativa,1737642901790,negativa;neutra;positiva
1737643399,bc2584302fffead698e1809107a60040,PennController,73,0,frases,NULL,PennController,74,_Trial_,End,1737642901791,NULL
1737643399,bc2584302fffead698e1809107a60040,PennController,74,0,frases,NULL,PennController,75,_Trial_,Start,1737642901792,NULL
1737643399,bc2584302fffead698e1809107a60040,PennController,74,0,frases,NULL,Selector,classificacao,Selection,positiva,1737642906886,negativa;neutra;positiva
1737643399,bc2584302fffead698e1809107a60040,PennController,74,0,frases,NULL,PennController,75,_Trial_,End,1737642906888,NULL
1737643399,bc2584302fffead698e1809107a60040,PennController,75,0,frases,NULL,PennController,76,_Trial_,Start,1737642906888,NULL
1737643399,bc2584302fffead698e1809107a60040,PennController,75,0,frases,NULL,Selector,classificacao,Selection,positiva,1737642909047,negativa;neutra;positiva
1737643399,bc2584302fffead698e1809107a60040,PennController,75,0,frases,NULL,PennController,76,_Trial_,End,1737642909048,NULL
1737643399,bc2584302fffead698e1809107a60040,PennController,76,0,frases,NULL,PennController,77,_Trial_,Start,1737642909048,NULL
1737643399,bc2584302fffead698e1809107a60040,PennController,76,0,frases,NULL,Selector,classificacao,Selection,positiva,1737642910654,negativa;neutra;positiva
1737643399,bc2584302fffead698e1809107a60040,PennController,76,0,frases,NULL,PennController,77,_Trial_,End,1737642910654,NULL
1737643399,bc2584302fffead698e1809107a60040,PennController,77,0,frases,NULL,PennController,78,_Trial_,Start,1737642910655,NULL
1737643399,bc2584302fffead698e1809107a60040,PennController,77,0,frases,NULL,Selector,classificacao,Selection,positiva,1737642914390,negativa;neutra;positiva
1737643399,bc2584302fffead698e1809107a60040,PennController,77,0,frases,NULL,PennController,78,_Trial_,End,1737642914391,NULL
1737643399,bc2584302fffead698e1809107a60040,PennController,78,0,frases,NULL,PennController,79,_Trial_,Start,1737642914391,NULL
1737643399,bc2584302fffead698e1809107a60040,PennController,78,0,frases,NULL,Selector,classificacao,Selection,neutra,1737642916559,negativa;neutra;positiva
1737643399,bc2584302fffead698e1809107a60040,PennController,78,0,frases,NULL,PennController,79,_Trial_,End,1737642916560,NULL
1737643399,bc2584302fffead698e1809107a60040,PennController,79,0,frases,NULL,PennController,80,_Trial_,Start,1737642916560,NULL
1737643399,bc2584302fffead698e1809107a60040,PennController,79,0,frases,NULL,Selector,classificacao,Selection,neutra,1737642921184,negativa;neutra;positiva
1737643399,bc2584302fffead698e1809107a60040,PennController,79,0,frases,NULL,PennController,80,_Trial_,End,1737642921184,NULL
1737643399,bc2584302fffead698e1809107a60040,PennController,80,0,frases,NULL,PennController,81,_Trial_,Start,1737642921185,NULL
1737643399,bc2584302fffead698e1809107a60040,PennController,80,0,frases,NULL,Selector,classificacao,Selection,neutra,1737642924927,negativa;neutra;positiva
1737643399,bc2584302fffead698e1809107a60040,PennController,80,0,frases,NULL,PennController,81,_Trial_,End,1737642924928,NULL
1737643399,bc2584302fffead698e1809107a60040,PennController,81,0,frases,NULL,PennController,82,_Trial_,Start,1737642924929,NULL
1737643399,bc2584302fffead698e1809107a60040,PennController,81,0,frases,NULL,Selector,classificacao,Selection,positiva,1737642928046,negativa;neutra;positiva
1737643399,bc2584302fffead698e1809107a60040,PennController,81,0,frases,NULL,PennController,82,_Trial_,End,1737642928047,NULL
1737643399,bc2584302fffead698e1809107a60040,PennController,82,0,frases,NULL,PennController,83,_Trial_,Start,1737642928047,NULL
1737643399,bc2584302fffead698e1809107a60040,PennController,82,0,frases,NULL,Selector,classificacao,Selection,neutra,1737642933981,negativa;neutra;positiva
1737643399,bc2584302fffead698e1809107a60040,PennController,82,0,frases,NULL,PennController,83,_Trial_,End,1737642933982,NULL
1737643399,bc2584302fffead698e1809107a60040,PennController,83,0,frases,NULL,PennController,84,_Trial_,Start,1737642933983,NULL
1737643399,bc2584302fffead698e1809107a60040,PennController,83,0,frases,NULL,Selector,classificacao,Selection,positiva,1737642937247,negativa;neutra;positiva
1737643399,bc2584302fffead698e1809107a60040,PennController,83,0,frases,NULL,PennController,84,_Trial_,End,1737642937248,NULL
1737643399,bc2584302fffead698e1809107a60040,PennController,84,0,frases,NULL,PennController,85,_Trial_,Start,1737642937248,NULL
1737643399,bc2584302fffead698e1809107a60040,PennController,84,0,frases,NULL,Selector,classificacao,Selection,neutra,1737642942335,negativa;neutra;positiva
1737643399,bc2584302fffead698e1809107a60040,PennController,84,0,frases,NULL,PennController,85,_Trial_,End,1737642942336,NULL
1737643399,bc2584302fffead698e1809107a60040,PennController,85,0,frases,NULL,PennController,86,_Trial_,Start,1737642942336,NULL
1737643399,bc2584302fffead698e1809107a60040,PennController,85,0,frases,NULL,Selector,classificacao,Selection,neutra,1737642944056,negativa;neutra;positiva
1737643399,bc2584302fffead698e1809107a60040,PennController,85,0,frases,NULL,PennController,86,_Trial_,End,1737642944057,NULL
1737643399,bc2584302fffead698e1809107a60040,PennController,86,0,frases,NULL,PennController,87,_Trial_,Start,1737642944057,NULL
1737643399,bc2584302fffead698e1809107a60040,PennController,86,0,frases,NULL,Selector,classificacao,Selection,positiva,1737642947327,negativa;neutra;positiva
1737643399,bc2584302fffead698e1809107a60040,PennController,86,0,frases,NULL,PennController,87,_Trial_,End,1737642947328,NULL
1737643399,bc2584302fffead698e1809107a60040,PennController,87,0,frases,NULL,PennController,88,_Trial_,Start,1737642947328,NULL
1737643399,bc2584302fffead698e1809107a60040,PennController,87,0,frases,NULL,Selector,classificacao,Selection,positiva,1737642949382,negativa;neutra;positiva
1737643399,bc2584302fffead698e1809107a60040,PennController,87,0,frases,NULL,PennController,88,_Trial_,End,1737642949383,NULL
1737643399,bc2584302fffead698e1809107a60040,PennController,88,0,frases,NULL,PennController,89,_Trial_,Start,1737642949384,NULL
1737643399,bc2584302fffead698e1809107a60040,PennController,88,0,frases,NULL,Selector,classificacao,Selection,negativa,1737642953287,negativa;neutra;positiva
1737643399,bc2584302fffead698e1809107a60040,PennController,88,0,frases,NULL,PennController,89,_Trial_,End,1737642953287,NULL
1737643399,bc2584302fffead698e1809107a60040,PennController,89,0,frases,NULL,PennController,90,_Trial_,Start,1737642953288,NULL
1737643399,bc2584302fffead698e1809107a60040,PennController,89,0,frases,NULL,Selector,classificacao,Selection,negativa,1737642958806,negativa;neutra;positiva
1737643399,bc2584302fffead698e1809107a60040,PennController,89,0,frases,NULL,PennController,90,_Trial_,End,1737642958806,NULL
1737643399,bc2584302fffead698e1809107a60040,PennController,90,0,frases,NULL,PennController,91,_Trial_,Start,1737642958807,NULL
1737643399,bc2584302fffead698e1809107a60040,PennController,90,0,frases,NULL,Selector,classificacao,Selection,neutra,1737643154214,negativa;neutra;positiva
1737643399,bc2584302fffead698e1809107a60040,PennController,90,0,frases,NULL,PennController,91,_Trial_,End,1737643154215,NULL
1737643399,bc2584302fffead698e1809107a60040,PennController,91,0,frases,NULL,PennController,92,_Trial_,Start,1737643154215,NULL
1737643399,bc2584302fffead698e1809107a60040,PennController,91,0,frases,NULL,Selector,classificacao,Selection,negativa,1737643156156,negativa;neutra;positiva
1737643399,bc2584302fffead698e1809107a60040,PennController,91,0,frases,NULL,PennController,92,_Trial_,End,1737643156157,NULL
1737643399,bc2584302fffead698e1809107a60040,PennController,92,0,frases,NULL,PennController,93,_Trial_,Start,1737643156158,NULL
1737643399,bc2584302fffead698e1809107a60040,PennController,92,0,frases,NULL,Selector,classificacao,Selection,neutra,1737643158373,negativa;neutra;positiva
1737643399,bc2584302fffead698e1809107a60040,PennController,92,0,frases,NULL,PennController,93,_Trial_,End,1737643158374,NULL
1737643399,bc2584302fffead698e1809107a60040,PennController,93,0,frases,NULL,PennController,94,_Trial_,Start,1737643158375,NULL
1737643399,bc2584302fffead698e1809107a60040,PennController,93,0,frases,NULL,Selector,classificacao,Selection,positiva,1737643161357,negativa;neutra;positiva
1737643399,bc2584302fffead698e1809107a60040,PennController,93,0,frases,NULL,PennController,94,_Trial_,End,1737643161359,NULL
1737643399,bc2584302fffead698e1809107a60040,PennController,94,0,frases,NULL,PennController,95,_Trial_,Start,1737643161359,NULL
1737643399,bc2584302fffead698e1809107a60040,PennController,94,0,frases,NULL,Selector,classificacao,Selection,neutra,1737643168596,negativa;neutra;positiva
1737643399,bc2584302fffead698e1809107a60040,PennController,94,0,frases,NULL,PennController,95,_Trial_,End,1737643168597,NULL
1737643399,bc2584302fffead698e1809107a60040,PennController,95,0,frases,NULL,PennController,96,_Trial_,Start,1737643168598,NULL
1737643399,bc2584302fffead698e1809107a60040,PennController,95,0,frases,NULL,Selector,classificacao,Selection,neutra,1737643170909,negativa;neutra;positiva
1737643399,bc2584302fffead698e1809107a60040,PennController,95,0,frases,NULL,PennController,96,_Trial_,End,1737643170910,NULL
1737643399,bc2584302fffead698e1809107a60040,PennController,96,0,frases,NULL,PennController,97,_Trial_,Start,1737643170910,NULL
1737643399,bc2584302fffead698e1809107a60040,PennController,96,0,frases,NULL,Selector,classificacao,Selection,negativa,1737643175902,negativa;neutra;positiva
1737643399,bc2584302fffead698e1809107a60040,PennController,96,0,frases,NULL,PennController,97,_Trial_,End,1737643175902,NULL
1737643399,bc2584302fffead698e1809107a60040,PennController,97,0,frases,NULL,PennController,98,_Trial_,Start,1737643175903,NULL
1737643399,bc2584302fffead698e1809107a60040,PennController,97,0,frases,NULL,Selector,classificacao,Selection,positiva,1737643180214,negativa;neutra;positiva
1737643399,bc2584302fffead698e1809107a60040,PennController,97,0,frases,NULL,PennController,98,_Trial_,End,1737643180214,NULL
1737643399,bc2584302fffead698e1809107a60040,PennController,98,0,frases,NULL,PennController,99,_Trial_,Start,1737643180215,NULL
1737643399,bc2584302fffead698e1809107a60040,PennController,98,0,frases,NULL,Selector,classificacao,Selection,positiva,1737643183380,negativa;neutra;positiva
1737643399,bc2584302fffead698e1809107a60040,PennController,98,0,frases,NULL,PennController,99,_Trial_,End,1737643183381,NULL
1737643399,bc2584302fffead698e1809107a60040,PennController,99,0,frases,NULL,PennController,100,_Trial_,Start,1737643183382,NULL
1737643399,bc2584302fffead698e1809107a60040,PennController,99,0,frases,NULL,Selector,classificacao,Selection,neutra,1737643189198,negativa;neutra;positiva
1737643399,bc2584302fffead698e1809107a60040,PennController,99,0,frases,NULL,PennController,100,_Trial_,End,1737643189198,NULL
1737643399,bc2584302fffead698e1809107a60040,PennController,100,0,frases,NULL,PennController,101,_Trial_,Start,1737643189199,NULL
1737643399,bc2584302fffead698e1809107a60040,PennController,100,0,frases,NULL,Selector,classificacao,Selection,neutra,1737643195237,negativa;neutra;positiva
1737643399,bc2584302fffead698e1809107a60040,PennController,100,0,frases,NULL,PennController,101,_Trial_,End,1737643195238,NULL
1737643399,bc2584302fffead698e1809107a60040,PennController,101,0,frases,NULL,PennController,102,_Trial_,Start,1737643195239,NULL
1737643399,bc2584302fffead698e1809107a60040,PennController,101,0,frases,NULL,Selector,classificacao,Selection,positiva,1737643198309,negativa;neutra;positiva
1737643399,bc2584302fffead698e1809107a60040,PennController,101,0,frases,NULL,PennController,102,_Trial_,End,1737643198309,NULL
1737643399,bc2584302fffead698e1809107a60040,PennController,102,0,frases,NULL,PennController,103,_Trial_,Start,1737643198310,NULL
1737643399,bc2584302fffead698e1809107a60040,PennController,102,0,frases,NULL,Selector,classificacao,Selection,neutra,1737643199844,negativa;neutra;positiva
1737643399,bc2584302fffead698e1809107a60040,PennController,102,0,frases,NULL,PennController,103,_Trial_,End,1737643199845,NULL
1737643399,bc2584302fffead698e1809107a60040,PennController,103,0,frases,NULL,PennController,104,_Trial_,Start,1737643199846,NULL
1737643399,bc2584302fffead698e1809107a60040,PennController,103,0,frases,NULL,Selector,classificacao,Selection,neutra,1737643205925,negativa;neutra;positiva
1737643399,bc2584302fffead698e1809107a60040,PennController,103,0,frases,NULL,PennController,104,_Trial_,End,1737643205926,NULL
1737643399,bc2584302fffead698e1809107a60040,PennController,104,0,frases,NULL,PennController,105,_Trial_,Start,1737643205926,NULL
1737643399,bc2584302fffead698e1809107a60040,PennController,104,0,frases,NULL,Selector,classificacao,Selection,neutra,1737643207828,negativa;neutra;positiva
1737643399,bc2584302fffead698e1809107a60040,PennController,104,0,frases,NULL,PennController,105,_Trial_,End,1737643207829,NULL
1737643399,bc2584302fffead698e1809107a60040,PennController,105,0,frases,NULL,PennController,106,_Trial_,Start,1737643207829,NULL
1737643399,bc2584302fffead698e1809107a60040,PennController,105,0,frases,NULL,Selector,classificacao,Selection,positiva,1737643212540,negativa;neutra;positiva
1737643399,bc2584302fffead698e1809107a60040,PennController,105,0,frases,NULL,PennController,106,_Trial_,End,1737643212541,NULL
1737643399,bc2584302fffead698e1809107a60040,PennController,106,0,frases,NULL,PennController,107,_Trial_,Start,1737643212541,NULL
1737643399,bc2584302fffead698e1809107a60040,PennController,106,0,frases,NULL,Selector,classificacao,Selection,negativa,1737643214477,negativa;neutra;positiva
1737643399,bc2584302fffead698e1809107a60040,PennController,106,0,frases,NULL,PennController,107,_Trial_,End,1737643214479,NULL
1737643399,bc2584302fffead698e1809107a60040,PennController,107,0,frases,NULL,PennController,108,_Trial_,Start,1737643214479,NULL
1737643399,bc2584302fffead698e1809107a60040,PennController,107,0,frases,NULL,Selector,classificacao,Selection,positiva,1737643218141,negativa;neutra;positiva
1737643399,bc2584302fffead698e1809107a60040,PennController,107,0,frases,NULL,PennController,108,_Trial_,End,1737643218141,NULL
1737643399,bc2584302fffead698e1809107a60040,PennController,108,0,frases,NULL,PennController,109,_Trial_,Start,1737643218143,NULL
1737643399,bc2584302fffead698e1809107a60040,PennController,108,0,frases,NULL,Selector,classificacao,Selection,neutra,1737643221109,negativa;neutra;positiva
1737643399,bc2584302fffead698e1809107a60040,PennController,108,0,frases,NULL,PennController,109,_Trial_,End,1737643221110,NULL
1737643399,bc2584302fffead698e1809107a60040,PennController,109,0,frases,NULL,PennController,110,_Trial_,Start,1737643221110,NULL
1737643399,bc2584302fffead698e1809107a60040,PennController,109,0,frases,NULL,Selector,classificacao,Selection,positiva,1737643222557,negativa;neutra;positiva
1737643399,bc2584302fffead698e1809107a60040,PennController,109,0,frases,NULL,PennController,110,_Trial_,End,1737643222558,NULL
1737643399,bc2584302fffead698e1809107a60040,PennController,110,0,frases,NULL,PennController,111,_Trial_,Start,1737643222558,NULL
1737643399,bc2584302fffead698e1809107a60040,PennController,110,0,frases,NULL,Selector,classificacao,Selection,positiva,1737643224108,negativa;neutra;positiva
1737643399,bc2584302fffead698e1809107a60040,PennController,110,0,frases,NULL,PennController,111,_Trial_,End,1737643224109,NULL
1737643399,bc2584302fffead698e1809107a60040,PennController,111,0,frases,NULL,PennController,112,_Trial_,Start,1737643224110,NULL
1737643399,bc2584302fffead698e1809107a60040,PennController,111,0,frases,NULL,Selector,classificacao,Selection,positiva,1737643225333,negativa;neutra;positiva
1737643399,bc2584302fffead698e1809107a60040,PennController,111,0,frases,NULL,PennController,112,_Trial_,End,1737643225334,NULL
1737643399,bc2584302fffead698e1809107a60040,PennController,112,0,frases,NULL,PennController,113,_Trial_,Start,1737643225334,NULL
1737643399,bc2584302fffead698e1809107a60040,PennController,112,0,frases,NULL,Selector,classificacao,Selection,negativa,1737643230732,negativa;neutra;positiva
1737643399,bc2584302fffead698e1809107a60040,PennController,112,0,frases,NULL,PennController,113,_Trial_,End,1737643230732,NULL
1737643399,bc2584302fffead698e1809107a60040,PennController,113,0,frases,NULL,PennController,114,_Trial_,Start,1737643230733,NULL
1737643399,bc2584302fffead698e1809107a60040,PennController,113,0,frases,NULL,Selector,classificacao,Selection,negativa,1737643234444,negativa;neutra;positiva
1737643399,bc2584302fffead698e1809107a60040,PennController,113,0,frases,NULL,PennController,114,_Trial_,End,1737643234444,NULL
1737643399,bc2584302fffead698e1809107a60040,PennController,114,0,frases,NULL,PennController,115,_Trial_,Start,1737643234445,NULL
1737643399,bc2584302fffead698e1809107a60040,PennController,114,0,frases,NULL,Selector,classificacao,Selection,negativa,1737643241941,negativa;neutra;positiva
1737643399,bc2584302fffead698e1809107a60040,PennController,114,0,frases,NULL,PennController,115,_Trial_,End,1737643241941,NULL
1737643399,bc2584302fffead698e1809107a60040,PennController,115,0,frases,NULL,PennController,116,_Trial_,Start,1737643241942,NULL
1737643399,bc2584302fffead698e1809107a60040,PennController,115,0,frases,NULL,Selector,classificacao,Selection,negativa,1737643244421,negativa;neutra;positiva
1737643399,bc2584302fffead698e1809107a60040,PennController,115,0,frases,NULL,PennController,116,_Trial_,End,1737643244421,NULL
1737643399,bc2584302fffead698e1809107a60040,PennController,116,0,frases,NULL,PennController,117,_Trial_,Start,1737643244422,NULL
1737643399,bc2584302fffead698e1809107a60040,PennController,116,0,frases,NULL,Selector,classificacao,Selection,neutra,1737643247101,negativa;neutra;positiva
1737643399,bc2584302fffead698e1809107a60040,PennController,116,0,frases,NULL,PennController,117,_Trial_,End,1737643247102,NULL
1737643399,bc2584302fffead698e1809107a60040,PennController,117,0,frases,NULL,PennController,118,_Trial_,Start,1737643247102,NULL
1737643399,bc2584302fffead698e1809107a60040,PennController,117,0,frases,NULL,Selector,classificacao,Selection,positiva,1737643249414,negativa;neutra;positiva
1737643399,bc2584302fffead698e1809107a60040,PennController,117,0,frases,NULL,PennController,118,_Trial_,End,1737643249415,NULL
1737643399,bc2584302fffead698e1809107a60040,PennController,118,0,frases,NULL,PennController,119,_Trial_,Start,1737643249415,NULL
1737643399,bc2584302fffead698e1809107a60040,PennController,118,0,frases,NULL,Selector,classificacao,Selection,neutra,1737643253349,negativa;neutra;positiva
1737643399,bc2584302fffead698e1809107a60040,PennController,118,0,frases,NULL,PennController,119,_Trial_,End,1737643253349,NULL
1737643399,bc2584302fffead698e1809107a60040,PennController,119,0,frases,NULL,PennController,120,_Trial_,Start,1737643253350,NULL
1737643399,bc2584302fffead698e1809107a60040,PennController,119,0,frases,NULL,Selector,classificacao,Selection,neutra,1737643261077,negativa;neutra;positiva
1737643399,bc2584302fffead698e1809107a60040,PennController,119,0,frases,NULL,PennController,120,_Trial_,End,1737643261078,NULL
1737643399,bc2584302fffead698e1809107a60040,PennController,120,0,frases,NULL,PennController,121,_Trial_,Start,1737643261078,NULL
1737643399,bc2584302fffead698e1809107a60040,PennController,120,0,frases,NULL,Selector,classificacao,Selection,neutra,1737643263933,negativa;neutra;positiva
1737643399,bc2584302fffead698e1809107a60040,PennController,120,0,frases,NULL,PennController,121,_Trial_,End,1737643263934,NULL
1737643399,bc2584302fffead698e1809107a60040,PennController,121,0,frases,NULL,PennController,122,_Trial_,Start,1737643263934,NULL
1737643399,bc2584302fffead698e1809107a60040,PennController,121,0,frases,NULL,Selector,classificacao,Selection,positiva,1737643269893,negativa;neutra;positiva
1737643399,bc2584302fffead698e1809107a60040,PennController,121,0,frases,NULL,PennController,122,_Trial_,End,1737643269894,NULL
1737643399,bc2584302fffead698e1809107a60040,PennController,122,0,frases,NULL,PennController,123,_Trial_,Start,1737643269894,NULL
1737643399,bc2584302fffead698e1809107a60040,PennController,122,0,frases,NULL,Selector,classificacao,Selection,positiva,1737643274820,negativa;neutra;positiva
1737643399,bc2584302fffead698e1809107a60040,PennController,122,0,frases,NULL,PennController,123,_Trial_,End,1737643274821,NULL
1737643399,bc2584302fffead698e1809107a60040,PennController,123,0,frases,NULL,PennController,124,_Trial_,Start,1737643274821,NULL
1737643399,bc2584302fffead698e1809107a60040,PennController,123,0,frases,NULL,Selector,classificacao,Selection,neutra,1737643277693,negativa;neutra;positiva
1737643399,bc2584302fffead698e1809107a60040,PennController,123,0,frases,NULL,PennController,124,_Trial_,End,1737643277694,NULL
1737643399,bc2584302fffead698e1809107a60040,PennController,124,0,frases,NULL,PennController,125,_Trial_,Start,1737643277694,NULL
1737643399,bc2584302fffead698e1809107a60040,PennController,124,0,frases,NULL,Selector,classificacao,Selection,negativa,1737643281100,negativa;neutra;positiva
1737643399,bc2584302fffead698e1809107a60040,PennController,124,0,frases,NULL,PennController,125,_Trial_,End,1737643281100,NULL
1737643399,bc2584302fffead698e1809107a60040,PennController,125,0,frases,NULL,PennController,126,_Trial_,Start,1737643281101,NULL
1737643399,bc2584302fffead698e1809107a60040,PennController,125,0,frases,NULL,Selector,classificacao,Selection,negativa,1737643283020,negativa;neutra;positiva
1737643399,bc2584302fffead698e1809107a60040,PennController,125,0,frases,NULL,PennController,126,_Trial_,End,1737643283021,NULL
1737643399,bc2584302fffead698e1809107a60040,PennController,126,0,frases,NULL,PennController,127,_Trial_,Start,1737643283021,NULL
1737643399,bc2584302fffead698e1809107a60040,PennController,126,0,frases,NULL,Selector,classificacao,Selection,neutra,1737643288333,negativa;neutra;positiva
1737643399,bc2584302fffead698e1809107a60040,PennController,126,0,frases,NULL,PennController,127,_Trial_,End,1737643288333,NULL
1737643399,bc2584302fffead698e1809107a60040,PennController,127,0,frases,NULL,PennController,128,_Trial_,Start,1737643288334,NULL
1737643399,bc2584302fffead698e1809107a60040,PennController,127,0,frases,NULL,Selector,classificacao,Selection,positiva,1737643291452,negativa;neutra;positiva
1737643399,bc2584302fffead698e1809107a60040,PennController,127,0,frases,NULL,PennController,128,_Trial_,End,1737643291453,NULL
1737643399,bc2584302fffead698e1809107a60040,PennController,128,0,frases,NULL,PennController,129,_Trial_,Start,1737643291454,NULL
1737643399,bc2584302fffead698e1809107a60040,PennController,128,0,frases,NULL,Selector,classificacao,Selection,positiva,1737643294404,negativa;neutra;positiva
1737643399,bc2584302fffead698e1809107a60040,PennController,128,0,frases,NULL,PennController,129,_Trial_,End,1737643294405,NULL
1737643399,bc2584302fffead698e1809107a60040,PennController,129,0,frases,NULL,PennController,130,_Trial_,Start,1737643294405,NULL
1737643399,bc2584302fffead698e1809107a60040,PennController,129,0,frases,NULL,Selector,classificacao,Selection,positiva,1737643295909,negativa;neutra;positiva
1737643399,bc2584302fffead698e1809107a60040,PennController,129,0,frases,NULL,PennController,130,_Trial_,End,1737643295910,NULL
1737643399,bc2584302fffead698e1809107a60040,PennController,130,0,frases,NULL,PennController,131,_Trial_,Start,1737643295910,NULL
1737643399,bc2584302fffead698e1809107a60040,PennController,130,0,frases,NULL,Selector,classificacao,Selection,positiva,1737643306764,negativa;neutra;positiva
1737643399,bc2584302fffead698e1809107a60040,PennController,130,0,frases,NULL,PennController,131,_Trial_,End,1737643306765,NULL
1737643399,bc2584302fffead698e1809107a60040,PennController,131,0,frases,NULL,PennController,132,_Trial_,Start,1737643306765,NULL
1737643399,bc2584302fffead698e1809107a60040,PennController,131,0,frases,NULL,Selector,classificacao,Selection,positiva,1737643308436,negativa;neutra;positiva
1737643399,bc2584302fffead698e1809107a60040,PennController,131,0,frases,NULL,PennController,132,_Trial_,End,1737643308437,NULL
1737643399,bc2584302fffead698e1809107a60040,PennController,132,0,frases,NULL,PennController,133,_Trial_,Start,1737643308437,NULL
1737643399,bc2584302fffead698e1809107a60040,PennController,132,0,frases,NULL,Selector,classificacao,Selection,positiva,1737643311525,negativa;neutra;positiva
1737643399,bc2584302fffead698e1809107a60040,PennController,132,0,frases,NULL,PennController,133,_Trial_,End,1737643311525,NULL
1737643399,bc2584302fffead698e1809107a60040,PennController,133,0,frases,NULL,PennController,134,_Trial_,Start,1737643311526,NULL
1737643399,bc2584302fffead698e1809107a60040,PennController,133,0,frases,NULL,Selector,classificacao,Selection,neutra,1737643319917,negativa;neutra;positiva
1737643399,bc2584302fffead698e1809107a60040,PennController,133,0,frases,NULL,PennController,134,_Trial_,End,1737643319918,NULL
1737643399,bc2584302fffead698e1809107a60040,PennController,134,0,frases,NULL,PennController,135,_Trial_,Start,1737643319918,NULL
1737643399,bc2584302fffead698e1809107a60040,PennController,134,0,frases,NULL,Selector,classificacao,Selection,positiva,1737643321939,negativa;neutra;positiva
1737643399,bc2584302fffead698e1809107a60040,PennController,134,0,frases,NULL,PennController,135,_Trial_,End,1737643321940,NULL
1737643399,bc2584302fffead698e1809107a60040,PennController,135,0,frases,NULL,PennController,136,_Trial_,Start,1737643321941,NULL
1737643399,bc2584302fffead698e1809107a60040,PennController,135,0,frases,NULL,Selector,classificacao,Selection,positiva,1737643326412,negativa;neutra;positiva
1737643399,bc2584302fffead698e1809107a60040,PennController,135,0,frases,NULL,PennController,136,_Trial_,End,1737643326412,NULL
1737643399,bc2584302fffead698e1809107a60040,PennController,136,0,frases,NULL,PennController,137,_Trial_,Start,1737643326413,NULL
1737643399,bc2584302fffead698e1809107a60040,PennController,136,0,frases,NULL,Selector,classificacao,Selection,neutra,1737643328564,negativa;neutra;positiva
1737643399,bc2584302fffead698e1809107a60040,PennController,136,0,frases,NULL,PennController,137,_Trial_,End,1737643328565,NULL
1737643399,bc2584302fffead698e1809107a60040,PennController,137,0,frases,NULL,PennController,138,_Trial_,Start,1737643328566,NULL
1737643399,bc2584302fffead698e1809107a60040,PennController,137,0,frases,NULL,Selector,classificacao,Selection,positiva,1737643331724,negativa;neutra;positiva
1737643399,bc2584302fffead698e1809107a60040,PennController,137,0,frases,NULL,PennController,138,_Trial_,End,1737643331725,NULL
1737643399,bc2584302fffead698e1809107a60040,PennController,138,0,frases,NULL,PennController,139,_Trial_,Start,1737643331727,NULL
1737643399,bc2584302fffead698e1809107a60040,PennController,138,0,frases,NULL,Selector,classificacao,Selection,positiva,1737643338828,negativa;neutra;positiva
1737643399,bc2584302fffead698e1809107a60040,PennController,138,0,frases,NULL,PennController,139,_Trial_,End,1737643338829,NULL
1737643399,bc2584302fffead698e1809107a60040,PennController,139,0,frases,NULL,PennController,140,_Trial_,Start,1737643338829,NULL
1737643399,bc2584302fffead698e1809107a60040,PennController,139,0,frases,NULL,Selector,classificacao,Selection,neutra,1737643343244,negativa;neutra;positiva
1737643399,bc2584302fffead698e1809107a60040,PennController,139,0,frases,NULL,PennController,140,_Trial_,End,1737643343245,NULL
1737643399,bc2584302fffead698e1809107a60040,PennController,140,0,frases,NULL,PennController,141,_Trial_,Start,1737643343246,NULL
1737643399,bc2584302fffead698e1809107a60040,PennController,140,0,frases,NULL,Selector,classificacao,Selection,positiva,1737643345164,negativa;neutra;positiva
1737643399,bc2584302fffead698e1809107a60040,PennController,140,0,frases,NULL,PennController,141,_Trial_,End,1737643345165,NULL
1737643399,bc2584302fffead698e1809107a60040,PennController,141,0,frases,NULL,PennController,142,_Trial_,Start,1737643345165,NULL
1737643399,bc2584302fffead698e1809107a60040,PennController,141,0,frases,NULL,Selector,classificacao,Selection,negativa,1737643347021,negativa;neutra;positiva
1737643399,bc2584302fffead698e1809107a60040,PennController,141,0,frases,NULL,PennController,142,_Trial_,End,1737643347022,NULL
1737643399,bc2584302fffead698e1809107a60040,PennController,142,0,frases,NULL,PennController,143,_Trial_,Start,1737643347022,NULL
1737643399,bc2584302fffead698e1809107a60040,PennController,142,0,frases,NULL,Selector,classificacao,Selection,negativa,1737643352827,negativa;neutra;positiva
1737643399,bc2584302fffead698e1809107a60040,PennController,142,0,frases,NULL,PennController,143,_Trial_,End,1737643352828,NULL
1737643399,bc2584302fffead698e1809107a60040,PennController,143,0,frases,NULL,PennController,144,_Trial_,Start,1737643352828,NULL
1737643399,bc2584302fffead698e1809107a60040,PennController,143,0,frases,NULL,Selector,classificacao,Selection,positiva,1737643359308,negativa;neutra;positiva
1737643399,bc2584302fffead698e1809107a60040,PennController,143,0,frases,NULL,PennController,144,_Trial_,End,1737643359309,NULL
1737643399,bc2584302fffead698e1809107a60040,PennController,144,0,frases,NULL,PennController,145,_Trial_,Start,1737643359309,NULL
1737643399,bc2584302fffead698e1809107a60040,PennController,144,0,frases,NULL,Selector,classificacao,Selection,neutra,1737643362372,negativa;neutra;positiva
1737643399,bc2584302fffead698e1809107a60040,PennController,144,0,frases,NULL,PennController,145,_Trial_,End,1737643362373,NULL
1737643399,bc2584302fffead698e1809107a60040,PennController,145,0,frases,NULL,PennController,146,_Trial_,Start,1737643362373,NULL
1737643399,bc2584302fffead698e1809107a60040,PennController,145,0,frases,NULL,Selector,classificacao,Selection,neutra,1737643370420,negativa;neutra;positiva
1737643399,bc2584302fffead698e1809107a60040,PennController,145,0,frases,NULL,PennController,146,_Trial_,End,1737643370420,NULL
1737643399,bc2584302fffead698e1809107a60040,PennController,146,0,frases,NULL,PennController,147,_Trial_,Start,1737643370422,NULL
1737643399,bc2584302fffead698e1809107a60040,PennController,146,0,frases,NULL,Selector,classificacao,Selection,neutra,1737643375716,negativa;neutra;positiva
1737643399,bc2584302fffead698e1809107a60040,PennController,146,0,frases,NULL,PennController,147,_Trial_,End,1737643375717,NULL
1737643399,bc2584302fffead698e1809107a60040,PennController,147,0,frases,NULL,PennController,148,_Trial_,Start,1737643375717,NULL
1737643399,bc2584302fffead698e1809107a60040,PennController,147,0,frases,NULL,Selector,classificacao,Selection,positiva,1737643379133,negativa;neutra;positiva
1737643399,bc2584302fffead698e1809107a60040,PennController,147,0,frases,NULL,PennController,148,_Trial_,End,1737643379133,NULL
1737643399,bc2584302fffead698e1809107a60040,PennController,148,0,frases,NULL,PennController,149,_Trial_,Start,1737643379134,NULL
1737643399,bc2584302fffead698e1809107a60040,PennController,148,0,frases,NULL,Selector,classificacao,Selection,neutra,1737643381027,negativa;neutra;positiva
1737643399,bc2584302fffead698e1809107a60040,PennController,148,0,frases,NULL,PennController,149,_Trial_,End,1737643381028,NULL
1737643399,bc2584302fffead698e1809107a60040,PennController,149,0,frases,NULL,PennController,150,_Trial_,Start,1737643381029,NULL
1737643399,bc2584302fffead698e1809107a60040,PennController,149,0,frases,NULL,Selector,classificacao,Selection,positiva,1737643385628,negativa;neutra;positiva
1737643399,bc2584302fffead698e1809107a60040,PennController,149,0,frases,NULL,PennController,150,_Trial_,End,1737643385629,NULL
1737643399,bc2584302fffead698e1809107a60040,PennController,150,0,frases,NULL,PennController,151,_Trial_,Start,1737643385630,NULL
1737643399,bc2584302fffead698e1809107a60040,PennController,150,0,frases,NULL,Selector,classificacao,Selection,positiva,1737643390923,negativa;neutra;positiva
1737643399,bc2584302fffead698e1809107a60040,PennController,150,0,frases,NULL,PennController,151,_Trial_,End,1737643390924,NULL
1737643399,bc2584302fffead698e1809107a60040,PennController,151,0,frases,NULL,PennController,152,_Trial_,Start,1737643390925,NULL
1737643399,bc2584302fffead698e1809107a60040,PennController,151,0,frases,NULL,Selector,classificacao,Selection,negativa,1737643392828,negativa;neutra;positiva
1737643399,bc2584302fffead698e1809107a60040,PennController,151,0,frases,NULL,PennController,152,_Trial_,End,1737643392829,NULL
1737643399,bc2584302fffead698e1809107a60040,PennController,152,0,frases,NULL,PennController,153,_Trial_,Start,1737643392829,NULL
1737643399,bc2584302fffead698e1809107a60040,PennController,152,0,frases,NULL,Selector,classificacao,Selection,neutra,1737643396211,negativa;neutra;positiva
1737643399,bc2584302fffead698e1809107a60040,PennController,152,0,frases,NULL,PennController,153,_Trial_,End,1737643396212,NULL
1737643399,bc2584302fffead698e1809107a60040,PennController,153,0,frases,NULL,PennController,154,_Trial_,Start,1737643396212,NULL
1737643399,bc2584302fffead698e1809107a60040,PennController,153,0,frases,NULL,Selector,classificacao,Selection,positiva,1737643397762,negativa;neutra;positiva
1737643399,bc2584302fffead698e1809107a60040,PennController,153,0,frases,NULL,PennController,154,_Trial_,End,1737643397763,NULL
1737643399,bc2584302fffead698e1809107a60040,PennController,154,0,agradecimento,NULL,PennController,4,_Trial_,Start,1737643397763,NULL
1737643399,bc2584302fffead698e1809107a60040,PennController,154,0,agradecimento,NULL,PennController,4,_Trial_,End,1737643399068,NULL
#
# Results on Thu, 23 Jan 2025 18:18:18 GMT
# USER AGENT: Mozilla/5.0 (Windows NT 10.0; Win64; x64) AppleWebKit/537.36 (KHTML, like Gecko) Chrome/131.0.0.0 Safari/537.36
# Design number was non-random = 1
#
# Columns below this comment are as follows:
# 1. Results reception time.
# 2. MD5 hash of participant's IP address.
# 3. Controller name.
# 4. Order number of item.
# 5. Inner element number.
# 6. Label.
# 7. Latin Square Group.
# 8. PennElementType.
# 9. PennElementName.
# 10. Parameter.
# 11. Value.
# 12. EventTime.
# 13. Comments.
1737656298,c2a6e53f5f6a5ef01c86cf67ae5c669b,PennController,0,0,TCLE,NULL,PennController,0,_Trial_,Start,1737655424831,NULL
1737656298,c2a6e53f5f6a5ef01c86cf67ae5c669b,PennController,0,0,TCLE,NULL,PennController,0,_Trial_,End,1737655433425,NULL
1737656298,c2a6e53f5f6a5ef01c86cf67ae5c669b,PennController,3,0,instrucoes,NULL,PennController,3,_Trial_,Start,1737655433427,NULL
1737656298,c2a6e53f5f6a5ef01c86cf67ae5c669b,PennController,3,0,instrucoes,NULL,PennController,3,_Trial_,End,1737655435081,NULL
1737656298,c2a6e53f5f6a5ef01c86cf67ae5c669b,PennController,1,0,genero,NULL,PennController,1,_Trial_,Start,1737655435082,NULL
1737656298,c2a6e53f5f6a5ef01c86cf67ae5c669b,PennController,1,0,genero,NULL,DropDown,selecionaGenero,Selected,Feminino,1737655441933,1
1737656298,c2a6e53f5f6a5ef01c86cf67ae5c669b,PennController,1,0,genero,NULL,PennController,1,_Trial_,End,1737655442669,NULL
1737656298,c2a6e53f5f6a5ef01c86cf67ae5c669b,PennController,4,0,frases,NULL,PennController,5,_Trial_,Start,1737655442671,NULL
1737656298,c2a6e53f5f6a5ef01c86cf67ae5c669b,PennController,4,0,frases,NULL,Selector,classificacao,Selection,negativa,1737655447798,negativa;neutra;positiva
1737656298,c2a6e53f5f6a5ef01c86cf67ae5c669b,PennController,4,0,frases,NULL,PennController,5,_Trial_,End,1737655447798,NULL
1737656298,c2a6e53f5f6a5ef01c86cf67ae5c669b,PennController,5,0,frases,NULL,PennController,6,_Trial_,Start,1737655447799,NULL
1737656298,c2a6e53f5f6a5ef01c86cf67ae5c669b,PennController,5,0,frases,NULL,Selector,classificacao,Selection,negativa,1737655452531,negativa;neutra;positiva
1737656298,c2a6e53f5f6a5ef01c86cf67ae5c669b,PennController,5,0,frases,NULL,PennController,6,_Trial_,End,1737655452533,NULL
1737656298,c2a6e53f5f6a5ef01c86cf67ae5c669b,PennController,6,0,frases,NULL,PennController,7,_Trial_,Start,1737655452534,NULL
1737656298,c2a6e53f5f6a5ef01c86cf67ae5c669b,PennController,6,0,frases,NULL,Selector,classificacao,Selection,neutra,1737655456173,negativa;neutra;positiva
1737656298,c2a6e53f5f6a5ef01c86cf67ae5c669b,PennController,6,0,frases,NULL,PennController,7,_Trial_,End,1737655456174,NULL
1737656298,c2a6e53f5f6a5ef01c86cf67ae5c669b,PennController,7,0,frases,NULL,PennController,8,_Trial_,Start,1737655456175,NULL
1737656298,c2a6e53f5f6a5ef01c86cf67ae5c669b,PennController,7,0,frases,NULL,Selector,classificacao,Selection,neutra,1737655460294,negativa;neutra;positiva
1737656298,c2a6e53f5f6a5ef01c86cf67ae5c669b,PennController,7,0,frases,NULL,PennController,8,_Trial_,End,1737655460295,NULL
1737656298,c2a6e53f5f6a5ef01c86cf67ae5c669b,PennController,8,0,frases,NULL,PennController,9,_Trial_,Start,1737655460296,NULL
1737656298,c2a6e53f5f6a5ef01c86cf67ae5c669b,PennController,8,0,frases,NULL,Selector,classificacao,Selection,neutra,1737655466462,negativa;neutra;positiva
1737656298,c2a6e53f5f6a5ef01c86cf67ae5c669b,PennController,8,0,frases,NULL,PennController,9,_Trial_,End,1737655466462,NULL
1737656298,c2a6e53f5f6a5ef01c86cf67ae5c669b,PennController,9,0,frases,NULL,PennController,10,_Trial_,Start,1737655466463,NULL
1737656298,c2a6e53f5f6a5ef01c86cf67ae5c669b,PennController,9,0,frases,NULL,Selector,classificacao,Selection,negativa,1737655471571,negativa;neutra;positiva
1737656298,c2a6e53f5f6a5ef01c86cf67ae5c669b,PennController,9,0,frases,NULL,PennController,10,_Trial_,End,1737655471572,NULL
1737656298,c2a6e53f5f6a5ef01c86cf67ae5c669b,PennController,10,0,frases,NULL,PennController,11,_Trial_,Start,1737655471572,NULL
1737656298,c2a6e53f5f6a5ef01c86cf67ae5c669b,PennController,10,0,frases,NULL,Selector,classificacao,Selection,negativa,1737655475442,negativa;neutra;positiva
1737656298,c2a6e53f5f6a5ef01c86cf67ae5c669b,PennController,10,0,frases,NULL,PennController,11,_Trial_,End,1737655475443,NULL
1737656298,c2a6e53f5f6a5ef01c86cf67ae5c669b,PennController,11,0,frases,NULL,PennController,12,_Trial_,Start,1737655475443,NULL
1737656298,c2a6e53f5f6a5ef01c86cf67ae5c669b,PennController,11,0,frases,NULL,Selector,classificacao,Selection,negativa,1737655479748,negativa;neutra;positiva
1737656298,c2a6e53f5f6a5ef01c86cf67ae5c669b,PennController,11,0,frases,NULL,PennController,12,_Trial_,End,1737655479749,NULL
1737656298,c2a6e53f5f6a5ef01c86cf67ae5c669b,PennController,12,0,frases,NULL,PennController,13,_Trial_,Start,1737655479749,NULL
1737656298,c2a6e53f5f6a5ef01c86cf67ae5c669b,PennController,12,0,frases,NULL,Selector,classificacao,Selection,neutra,1737655488186,negativa;neutra;positiva
1737656298,c2a6e53f5f6a5ef01c86cf67ae5c669b,PennController,12,0,frases,NULL,PennController,13,_Trial_,End,1737655488187,NULL
1737656298,c2a6e53f5f6a5ef01c86cf67ae5c669b,PennController,13,0,frases,NULL,PennController,14,_Trial_,Start,1737655488188,NULL
1737656298,c2a6e53f5f6a5ef01c86cf67ae5c669b,PennController,13,0,frases,NULL,Selector,classificacao,Selection,negativa,1737655499300,negativa;neutra;positiva
1737656298,c2a6e53f5f6a5ef01c86cf67ae5c669b,PennController,13,0,frases,NULL,PennController,14,_Trial_,End,1737655499301,NULL
1737656298,c2a6e53f5f6a5ef01c86cf67ae5c669b,PennController,14,0,frases,NULL,PennController,15,_Trial_,Start,1737655499302,NULL
1737656298,c2a6e53f5f6a5ef01c86cf67ae5c669b,PennController,14,0,frases,NULL,Selector,classificacao,Selection,negativa,1737655506116,negativa;neutra;positiva
1737656298,c2a6e53f5f6a5ef01c86cf67ae5c669b,PennController,14,0,frases,NULL,PennController,15,_Trial_,End,1737655506117,NULL
1737656298,c2a6e53f5f6a5ef01c86cf67ae5c669b,PennController,15,0,frases,NULL,PennController,16,_Trial_,Start,1737655506119,NULL
1737656298,c2a6e53f5f6a5ef01c86cf67ae5c669b,PennController,15,0,frases,NULL,Selector,classificacao,Selection,neutra,1737655512590,negativa;neutra;positiva
1737656298,c2a6e53f5f6a5ef01c86cf67ae5c669b,PennController,15,0,frases,NULL,PennController,16,_Trial_,End,1737655512591,NULL
1737656298,c2a6e53f5f6a5ef01c86cf67ae5c669b,PennController,16,0,frases,NULL,PennController,17,_Trial_,Start,1737655512591,NULL
1737656298,c2a6e53f5f6a5ef01c86cf67ae5c669b,PennController,16,0,frases,NULL,Selector,classificacao,Selection,negativa,1737655525112,negativa;neutra;positiva
1737656298,c2a6e53f5f6a5ef01c86cf67ae5c669b,PennController,16,0,frases,NULL,PennController,17,_Trial_,End,1737655525113,NULL
1737656298,c2a6e53f5f6a5ef01c86cf67ae5c669b,PennController,17,0,frases,NULL,PennController,18,_Trial_,Start,1737655525113,NULL
1737656298,c2a6e53f5f6a5ef01c86cf67ae5c669b,PennController,17,0,frases,NULL,Selector,classificacao,Selection,negativa,1737655530775,negativa;neutra;positiva
1737656298,c2a6e53f5f6a5ef01c86cf67ae5c669b,PennController,17,0,frases,NULL,PennController,18,_Trial_,End,1737655530775,NULL
1737656298,c2a6e53f5f6a5ef01c86cf67ae5c669b,PennController,18,0,frases,NULL,PennController,19,_Trial_,Start,1737655530776,NULL
1737656298,c2a6e53f5f6a5ef01c86cf67ae5c669b,PennController,18,0,frases,NULL,Selector,classificacao,Selection,neutra,1737655536272,negativa;neutra;positiva
1737656298,c2a6e53f5f6a5ef01c86cf67ae5c669b,PennController,18,0,frases,NULL,PennController,19,_Trial_,End,1737655536273,NULL
1737656298,c2a6e53f5f6a5ef01c86cf67ae5c669b,PennController,19,0,frases,NULL,PennController,20,_Trial_,Start,1737655536274,NULL
1737656298,c2a6e53f5f6a5ef01c86cf67ae5c669b,PennController,19,0,frases,NULL,Selector,classificacao,Selection,negativa,1737655543534,negativa;neutra;positiva
1737656298,c2a6e53f5f6a5ef01c86cf67ae5c669b,PennController,19,0,frases,NULL,PennController,20,_Trial_,End,1737655543534,NULL
1737656298,c2a6e53f5f6a5ef01c86cf67ae5c669b,PennController,20,0,frases,NULL,PennController,21,_Trial_,Start,1737655543535,NULL
1737656298,c2a6e53f5f6a5ef01c86cf67ae5c669b,PennController,20,0,frases,NULL,Selector,classificacao,Selection,negativa,1737655555754,negativa;neutra;positiva
1737656298,c2a6e53f5f6a5ef01c86cf67ae5c669b,PennController,20,0,frases,NULL,PennController,21,_Trial_,End,1737655555755,NULL
1737656298,c2a6e53f5f6a5ef01c86cf67ae5c669b,PennController,21,0,frases,NULL,PennController,22,_Trial_,Start,1737655555756,NULL
1737656298,c2a6e53f5f6a5ef01c86cf67ae5c669b,PennController,21,0,frases,NULL,Selector,classificacao,Selection,neutra,1737655559836,negativa;neutra;positiva
1737656298,c2a6e53f5f6a5ef01c86cf67ae5c669b,PennController,21,0,frases,NULL,PennController,22,_Trial_,End,1737655559837,NULL
1737656298,c2a6e53f5f6a5ef01c86cf67ae5c669b,PennController,22,0,frases,NULL,PennController,23,_Trial_,Start,1737655559838,NULL
1737656298,c2a6e53f5f6a5ef01c86cf67ae5c669b,PennController,22,0,frases,NULL,Selector,classificacao,Selection,neutra,1737655563016,negativa;neutra;positiva
1737656298,c2a6e53f5f6a5ef01c86cf67ae5c669b,PennController,22,0,frases,NULL,PennController,23,_Trial_,End,1737655563017,NULL
1737656298,c2a6e53f5f6a5ef01c86cf67ae5c669b,PennController,23,0,frases,NULL,PennController,24,_Trial_,Start,1737655563019,NULL
1737656298,c2a6e53f5f6a5ef01c86cf67ae5c669b,PennController,23,0,frases,NULL,Selector,classificacao,Selection,neutra,1737655568738,negativa;neutra;positiva
1737656298,c2a6e53f5f6a5ef01c86cf67ae5c669b,PennController,23,0,frases,NULL,PennController,24,_Trial_,End,1737655568739,NULL
1737656298,c2a6e53f5f6a5ef01c86cf67ae5c669b,PennController,24,0,frases,NULL,PennController,25,_Trial_,Start,1737655568739,NULL
1737656298,c2a6e53f5f6a5ef01c86cf67ae5c669b,PennController,24,0,frases,NULL,Selector,classificacao,Selection,negativa,1737655579703,negativa;neutra;positiva
1737656298,c2a6e53f5f6a5ef01c86cf67ae5c669b,PennController,24,0,frases,NULL,PennController,25,_Trial_,End,1737655579704,NULL
1737656298,c2a6e53f5f6a5ef01c86cf67ae5c669b,PennController,25,0,frases,NULL,PennController,26,_Trial_,Start,1737655579704,NULL
1737656298,c2a6e53f5f6a5ef01c86cf67ae5c669b,PennController,25,0,frases,NULL,Selector,classificacao,Selection,neutra,1737655581879,negativa;neutra;positiva
1737656298,c2a6e53f5f6a5ef01c86cf67ae5c669b,PennController,25,0,frases,NULL,PennController,26,_Trial_,End,1737655581879,NULL
1737656298,c2a6e53f5f6a5ef01c86cf67ae5c669b,PennController,26,0,frases,NULL,PennController,27,_Trial_,Start,1737655581881,NULL
1737656298,c2a6e53f5f6a5ef01c86cf67ae5c669b,PennController,26,0,frases,NULL,Selector,classificacao,Selection,negativa,1737655590977,negativa;neutra;positiva
1737656298,c2a6e53f5f6a5ef01c86cf67ae5c669b,PennController,26,0,frases,NULL,PennController,27,_Trial_,End,1737655590978,NULL
1737656298,c2a6e53f5f6a5ef01c86cf67ae5c669b,PennController,27,0,frases,NULL,PennController,28,_Trial_,Start,1737655590978,NULL
1737656298,c2a6e53f5f6a5ef01c86cf67ae5c669b,PennController,27,0,frases,NULL,Selector,classificacao,Selection,negativa,1737655597795,negativa;neutra;positiva
1737656298,c2a6e53f5f6a5ef01c86cf67ae5c669b,PennController,27,0,frases,NULL,PennController,28,_Trial_,End,1737655597796,NULL
1737656298,c2a6e53f5f6a5ef01c86cf67ae5c669b,PennController,28,0,frases,NULL,PennController,29,_Trial_,Start,1737655597796,NULL
1737656298,c2a6e53f5f6a5ef01c86cf67ae5c669b,PennController,28,0,frases,NULL,Selector,classificacao,Selection,negativa,1737655604651,negativa;neutra;positiva
1737656298,c2a6e53f5f6a5ef01c86cf67ae5c669b,PennController,28,0,frases,NULL,PennController,29,_Trial_,End,1737655604652,NULL
1737656298,c2a6e53f5f6a5ef01c86cf67ae5c669b,PennController,29,0,frases,NULL,PennController,30,_Trial_,Start,1737655604652,NULL
1737656298,c2a6e53f5f6a5ef01c86cf67ae5c669b,PennController,29,0,frases,NULL,Selector,classificacao,Selection,neutra,1737655614285,negativa;neutra;positiva
1737656298,c2a6e53f5f6a5ef01c86cf67ae5c669b,PennController,29,0,frases,NULL,PennController,30,_Trial_,End,1737655614285,NULL
1737656298,c2a6e53f5f6a5ef01c86cf67ae5c669b,PennController,30,0,frases,NULL,PennController,31,_Trial_,Start,1737655614286,NULL
1737656298,c2a6e53f5f6a5ef01c86cf67ae5c669b,PennController,30,0,frases,NULL,Selector,classificacao,Selection,neutra,1737655619555,negativa;neutra;positiva
1737656298,c2a6e53f5f6a5ef01c86cf67ae5c669b,PennController,30,0,frases,NULL,PennController,31,_Trial_,End,1737655619556,NULL
1737656298,c2a6e53f5f6a5ef01c86cf67ae5c669b,PennController,31,0,frases,NULL,PennController,32,_Trial_,Start,1737655619556,NULL
1737656298,c2a6e53f5f6a5ef01c86cf67ae5c669b,PennController,31,0,frases,NULL,Selector,classificacao,Selection,neutra,1737655621672,negativa;neutra;positiva
1737656298,c2a6e53f5f6a5ef01c86cf67ae5c669b,PennController,31,0,frases,NULL,PennController,32,_Trial_,End,1737655621673,NULL
1737656298,c2a6e53f5f6a5ef01c86cf67ae5c669b,PennController,32,0,frases,NULL,PennController,33,_Trial_,Start,1737655621673,NULL
1737656298,c2a6e53f5f6a5ef01c86cf67ae5c669b,PennController,32,0,frases,NULL,Selector,classificacao,Selection,neutra,1737655623245,negativa;neutra;positiva
1737656298,c2a6e53f5f6a5ef01c86cf67ae5c669b,PennController,32,0,frases,NULL,PennController,33,_Trial_,End,1737655623246,NULL
1737656298,c2a6e53f5f6a5ef01c86cf67ae5c669b,PennController,33,0,frases,NULL,PennController,34,_Trial_,Start,1737655623247,NULL
1737656298,c2a6e53f5f6a5ef01c86cf67ae5c669b,PennController,33,0,frases,NULL,Selector,classificacao,Selection,neutra,1737655624923,negativa;neutra;positiva
1737656298,c2a6e53f5f6a5ef01c86cf67ae5c669b,PennController,33,0,frases,NULL,PennController,34,_Trial_,End,1737655624924,NULL
1737656298,c2a6e53f5f6a5ef01c86cf67ae5c669b,PennController,34,0,frases,NULL,PennController,35,_Trial_,Start,1737655624925,NULL
1737656298,c2a6e53f5f6a5ef01c86cf67ae5c669b,PennController,34,0,frases,NULL,Selector,classificacao,Selection,neutra,1737655634041,negativa;neutra;positiva
1737656298,c2a6e53f5f6a5ef01c86cf67ae5c669b,PennController,34,0,frases,NULL,PennController,35,_Trial_,End,1737655634041,NULL
1737656298,c2a6e53f5f6a5ef01c86cf67ae5c669b,PennController,35,0,frases,NULL,PennController,36,_Trial_,Start,1737655634042,NULL
1737656298,c2a6e53f5f6a5ef01c86cf67ae5c669b,PennController,35,0,frases,NULL,Selector,classificacao,Selection,negativa,1737655637695,negativa;neutra;positiva
1737656298,c2a6e53f5f6a5ef01c86cf67ae5c669b,PennController,35,0,frases,NULL,PennController,36,_Trial_,End,1737655637696,NULL
1737656298,c2a6e53f5f6a5ef01c86cf67ae5c669b,PennController,36,0,frases,NULL,PennController,37,_Trial_,Start,1737655637697,NULL
1737656298,c2a6e53f5f6a5ef01c86cf67ae5c669b,PennController,36,0,frases,NULL,Selector,classificacao,Selection,neutra,1737655646957,negativa;neutra;positiva
1737656298,c2a6e53f5f6a5ef01c86cf67ae5c669b,PennController,36,0,frases,NULL,PennController,37,_Trial_,End,1737655646957,NULL
1737656298,c2a6e53f5f6a5ef01c86cf67ae5c669b,PennController,37,0,frases,NULL,PennController,38,_Trial_,Start,1737655646958,NULL
1737656298,c2a6e53f5f6a5ef01c86cf67ae5c669b,PennController,37,0,frases,NULL,Selector,classificacao,Selection,neutra,1737655651683,negativa;neutra;positiva
1737656298,c2a6e53f5f6a5ef01c86cf67ae5c669b,PennController,37,0,frases,NULL,PennController,38,_Trial_,End,1737655651684,NULL
1737656298,c2a6e53f5f6a5ef01c86cf67ae5c669b,PennController,38,0,frases,NULL,PennController,39,_Trial_,Start,1737655651685,NULL
1737656298,c2a6e53f5f6a5ef01c86cf67ae5c669b,PennController,38,0,frases,NULL,Selector,classificacao,Selection,neutra,1737655658327,negativa;neutra;positiva
1737656298,c2a6e53f5f6a5ef01c86cf67ae5c669b,PennController,38,0,frases,NULL,PennController,39,_Trial_,End,1737655658328,NULL
1737656298,c2a6e53f5f6a5ef01c86cf67ae5c669b,PennController,39,0,frases,NULL,PennController,40,_Trial_,Start,1737655658329,NULL
1737656298,c2a6e53f5f6a5ef01c86cf67ae5c669b,PennController,39,0,frases,NULL,Selector,classificacao,Selection,neutra,1737655660593,negativa;neutra;positiva
1737656298,c2a6e53f5f6a5ef01c86cf67ae5c669b,PennController,39,0,frases,NULL,PennController,40,_Trial_,End,1737655660594,NULL
1737656298,c2a6e53f5f6a5ef01c86cf67ae5c669b,PennController,40,0,frases,NULL,PennController,41,_Trial_,Start,1737655660595,NULL
1737656298,c2a6e53f5f6a5ef01c86cf67ae5c669b,PennController,40,0,frases,NULL,Selector,classificacao,Selection,neutra,1737655665242,negativa;neutra;positiva
1737656298,c2a6e53f5f6a5ef01c86cf67ae5c669b,PennController,40,0,frases,NULL,PennController,41,_Trial_,End,1737655665243,NULL
1737656298,c2a6e53f5f6a5ef01c86cf67ae5c669b,PennController,41,0,frases,NULL,PennController,42,_Trial_,Start,1737655665244,NULL
1737656298,c2a6e53f5f6a5ef01c86cf67ae5c669b,PennController,41,0,frases,NULL,Selector,classificacao,Selection,neutra,1737655667677,negativa;neutra;positiva
1737656298,c2a6e53f5f6a5ef01c86cf67ae5c669b,PennController,41,0,frases,NULL,PennController,42,_Trial_,End,1737655667678,NULL
1737656298,c2a6e53f5f6a5ef01c86cf67ae5c669b,PennController,42,0,frases,NULL,PennController,43,_Trial_,Start,1737655667678,NULL
1737656298,c2a6e53f5f6a5ef01c86cf67ae5c669b,PennController,42,0,frases,NULL,Selector,classificacao,Selection,negativa,1737655671679,negativa;neutra;positiva
1737656298,c2a6e53f5f6a5ef01c86cf67ae5c669b,PennController,42,0,frases,NULL,PennController,43,_Trial_,End,1737655671680,NULL
1737656298,c2a6e53f5f6a5ef01c86cf67ae5c669b,PennController,43,0,frases,NULL,PennController,44,_Trial_,Start,1737655671682,NULL
1737656298,c2a6e53f5f6a5ef01c86cf67ae5c669b,PennController,43,0,frases,NULL,Selector,classificacao,Selection,neutra,1737655673847,negativa;neutra;positiva
1737656298,c2a6e53f5f6a5ef01c86cf67ae5c669b,PennController,43,0,frases,NULL,PennController,44,_Trial_,End,1737655673848,NULL
1737656298,c2a6e53f5f6a5ef01c86cf67ae5c669b,PennController,44,0,frases,NULL,PennController,45,_Trial_,Start,1737655673849,NULL
1737656298,c2a6e53f5f6a5ef01c86cf67ae5c669b,PennController,44,0,frases,NULL,Selector,classificacao,Selection,positiva,1737655679639,negativa;neutra;positiva
1737656298,c2a6e53f5f6a5ef01c86cf67ae5c669b,PennController,44,0,frases,NULL,PennController,45,_Trial_,End,1737655679640,NULL
1737656298,c2a6e53f5f6a5ef01c86cf67ae5c669b,PennController,45,0,frases,NULL,PennController,46,_Trial_,Start,1737655679641,NULL
1737656298,c2a6e53f5f6a5ef01c86cf67ae5c669b,PennController,45,0,frases,NULL,Selector,classificacao,Selection,neutra,1737655686989,negativa;neutra;positiva
1737656298,c2a6e53f5f6a5ef01c86cf67ae5c669b,PennController,45,0,frases,NULL,PennController,46,_Trial_,End,1737655686990,NULL
1737656298,c2a6e53f5f6a5ef01c86cf67ae5c669b,PennController,46,0,frases,NULL,PennController,47,_Trial_,Start,1737655686990,NULL
1737656298,c2a6e53f5f6a5ef01c86cf67ae5c669b,PennController,46,0,frases,NULL,Selector,classificacao,Selection,negativa,1737655690713,negativa;neutra;positiva
1737656298,c2a6e53f5f6a5ef01c86cf67ae5c669b,PennController,46,0,frases,NULL,PennController,47,_Trial_,End,1737655690713,NULL
1737656298,c2a6e53f5f6a5ef01c86cf67ae5c669b,PennController,47,0,frases,NULL,PennController,48,_Trial_,Start,1737655690714,NULL
1737656298,c2a6e53f5f6a5ef01c86cf67ae5c669b,PennController,47,0,frases,NULL,Selector,classificacao,Selection,neutra,1737655702281,negativa;neutra;positiva
1737656298,c2a6e53f5f6a5ef01c86cf67ae5c669b,PennController,47,0,frases,NULL,PennController,48,_Trial_,End,1737655702283,NULL
1737656298,c2a6e53f5f6a5ef01c86cf67ae5c669b,PennController,48,0,frases,NULL,PennController,49,_Trial_,Start,1737655702284,NULL
1737656298,c2a6e53f5f6a5ef01c86cf67ae5c669b,PennController,48,0,frases,NULL,Selector,classificacao,Selection,negativa,1737655705842,negativa;neutra;positiva
1737656298,c2a6e53f5f6a5ef01c86cf67ae5c669b,PennController,48,0,frases,NULL,PennController,49,_Trial_,End,1737655705842,NULL
1737656298,c2a6e53f5f6a5ef01c86cf67ae5c669b,PennController,49,0,frases,NULL,PennController,50,_Trial_,Start,1737655705843,NULL
1737656298,c2a6e53f5f6a5ef01c86cf67ae5c669b,PennController,49,0,frases,NULL,Selector,classificacao,Selection,neutra,1737655708964,negativa;neutra;positiva
1737656298,c2a6e53f5f6a5ef01c86cf67ae5c669b,PennController,49,0,frases,NULL,PennController,50,_Trial_,End,1737655708964,NULL
1737656298,c2a6e53f5f6a5ef01c86cf67ae5c669b,PennController,50,0,frases,NULL,PennController,51,_Trial_,Start,1737655708965,NULL
1737656298,c2a6e53f5f6a5ef01c86cf67ae5c669b,PennController,50,0,frases,NULL,Selector,classificacao,Selection,neutra,1737655710774,negativa;neutra;positiva
1737656298,c2a6e53f5f6a5ef01c86cf67ae5c669b,PennController,50,0,frases,NULL,PennController,51,_Trial_,End,1737655710774,NULL
1737656298,c2a6e53f5f6a5ef01c86cf67ae5c669b,PennController,51,0,frases,NULL,PennController,52,_Trial_,Start,1737655710775,NULL
1737656298,c2a6e53f5f6a5ef01c86cf67ae5c669b,PennController,51,0,frases,NULL,Selector,classificacao,Selection,neutra,1737655714701,negativa;neutra;positiva
1737656298,c2a6e53f5f6a5ef01c86cf67ae5c669b,PennController,51,0,frases,NULL,PennController,52,_Trial_,End,1737655714703,NULL
1737656298,c2a6e53f5f6a5ef01c86cf67ae5c669b,PennController,52,0,frases,NULL,PennController,53,_Trial_,Start,1737655714704,NULL
1737656298,c2a6e53f5f6a5ef01c86cf67ae5c669b,PennController,52,0,frases,NULL,Selector,classificacao,Selection,neutra,1737655718433,negativa;neutra;positiva
1737656298,c2a6e53f5f6a5ef01c86cf67ae5c669b,PennController,52,0,frases,NULL,PennController,53,_Trial_,End,1737655718434,NULL
1737656298,c2a6e53f5f6a5ef01c86cf67ae5c669b,PennController,53,0,frases,NULL,PennController,54,_Trial_,Start,1737655718434,NULL
1737656298,c2a6e53f5f6a5ef01c86cf67ae5c669b,PennController,53,0,frases,NULL,Selector,classificacao,Selection,neutra,1737655720704,negativa;neutra;positiva
1737656298,c2a6e53f5f6a5ef01c86cf67ae5c669b,PennController,53,0,frases,NULL,PennController,54,_Trial_,End,1737655720704,NULL
1737656298,c2a6e53f5f6a5ef01c86cf67ae5c669b,PennController,54,0,frases,NULL,PennController,55,_Trial_,Start,1737655720705,NULL
1737656298,c2a6e53f5f6a5ef01c86cf67ae5c669b,PennController,54,0,frases,NULL,Selector,classificacao,Selection,neutra,1737655723423,negativa;neutra;positiva
1737656298,c2a6e53f5f6a5ef01c86cf67ae5c669b,PennController,54,0,frases,NULL,PennController,55,_Trial_,End,1737655723424,NULL
1737656298,c2a6e53f5f6a5ef01c86cf67ae5c669b,PennController,55,0,frases,NULL,PennController,56,_Trial_,Start,1737655723425,NULL
1737656298,c2a6e53f5f6a5ef01c86cf67ae5c669b,PennController,55,0,frases,NULL,Selector,classificacao,Selection,negativa,1737655733322,negativa;neutra;positiva
1737656298,c2a6e53f5f6a5ef01c86cf67ae5c669b,PennController,55,0,frases,NULL,PennController,56,_Trial_,End,1737655733322,NULL
1737656298,c2a6e53f5f6a5ef01c86cf67ae5c669b,PennController,56,0,frases,NULL,PennController,57,_Trial_,Start,1737655733323,NULL
1737656298,c2a6e53f5f6a5ef01c86cf67ae5c669b,PennController,56,0,frases,NULL,Selector,classificacao,Selection,neutra,1737655739421,negativa;neutra;positiva
1737656298,c2a6e53f5f6a5ef01c86cf67ae5c669b,PennController,56,0,frases,NULL,PennController,57,_Trial_,End,1737655739422,NULL
1737656298,c2a6e53f5f6a5ef01c86cf67ae5c669b,PennController,57,0,frases,NULL,PennController,58,_Trial_,Start,1737655739422,NULL
1737656298,c2a6e53f5f6a5ef01c86cf67ae5c669b,PennController,57,0,frases,NULL,Selector,classificacao,Selection,neutra,1737655742631,negativa;neutra;positiva
1737656298,c2a6e53f5f6a5ef01c86cf67ae5c669b,PennController,57,0,frases,NULL,PennController,58,_Trial_,End,1737655742632,NULL
1737656298,c2a6e53f5f6a5ef01c86cf67ae5c669b,PennController,58,0,frases,NULL,PennController,59,_Trial_,Start,1737655742632,NULL
1737656298,c2a6e53f5f6a5ef01c86cf67ae5c669b,PennController,58,0,frases,NULL,Selector,classificacao,Selection,neutra,1737655746677,negativa;neutra;positiva
1737656298,c2a6e53f5f6a5ef01c86cf67ae5c669b,PennController,58,0,frases,NULL,PennController,59,_Trial_,End,1737655746678,NULL
1737656298,c2a6e53f5f6a5ef01c86cf67ae5c669b,PennController,59,0,frases,NULL,PennController,60,_Trial_,Start,1737655746678,NULL
1737656298,c2a6e53f5f6a5ef01c86cf67ae5c669b,PennController,59,0,frases,NULL,Selector,classificacao,Selection,neutra,1737655752897,negativa;neutra;positiva
1737656298,c2a6e53f5f6a5ef01c86cf67ae5c669b,PennController,59,0,frases,NULL,PennController,60,_Trial_,End,1737655752898,NULL
1737656298,c2a6e53f5f6a5ef01c86cf67ae5c669b,PennController,60,0,frases,NULL,PennController,61,_Trial_,Start,1737655752898,NULL
1737656298,c2a6e53f5f6a5ef01c86cf67ae5c669b,PennController,60,0,frases,NULL,Selector,classificacao,Selection,neutra,1737655755231,negativa;neutra;positiva
1737656298,c2a6e53f5f6a5ef01c86cf67ae5c669b,PennController,60,0,frases,NULL,PennController,61,_Trial_,End,1737655755232,NULL
1737656298,c2a6e53f5f6a5ef01c86cf67ae5c669b,PennController,61,0,frases,NULL,PennController,62,_Trial_,Start,1737655755232,NULL
1737656298,c2a6e53f5f6a5ef01c86cf67ae5c669b,PennController,61,0,frases,NULL,Selector,classificacao,Selection,neutra,1737655757646,negativa;neutra;positiva
1737656298,c2a6e53f5f6a5ef01c86cf67ae5c669b,PennController,61,0,frases,NULL,PennController,62,_Trial_,End,1737655757647,NULL
1737656298,c2a6e53f5f6a5ef01c86cf67ae5c669b,PennController,62,0,frases,NULL,PennController,63,_Trial_,Start,1737655757647,NULL
1737656298,c2a6e53f5f6a5ef01c86cf67ae5c669b,PennController,62,0,frases,NULL,Selector,classificacao,Selection,neutra,1737655761946,negativa;neutra;positiva
1737656298,c2a6e53f5f6a5ef01c86cf67ae5c669b,PennController,62,0,frases,NULL,PennController,63,_Trial_,End,1737655761946,NULL
1737656298,c2a6e53f5f6a5ef01c86cf67ae5c669b,PennController,63,0,frases,NULL,PennController,64,_Trial_,Start,1737655761947,NULL
1737656298,c2a6e53f5f6a5ef01c86cf67ae5c669b,PennController,63,0,frases,NULL,Selector,classificacao,Selection,positiva,1737655764250,negativa;neutra;positiva
1737656298,c2a6e53f5f6a5ef01c86cf67ae5c669b,PennController,63,0,frases,NULL,PennController,64,_Trial_,End,1737655764251,NULL
1737656298,c2a6e53f5f6a5ef01c86cf67ae5c669b,PennController,64,0,frases,NULL,PennController,65,_Trial_,Start,1737655764252,NULL
1737656298,c2a6e53f5f6a5ef01c86cf67ae5c669b,PennController,64,0,frases,NULL,Selector,classificacao,Selection,positiva,1737655766150,negativa;neutra;positiva
1737656298,c2a6e53f5f6a5ef01c86cf67ae5c669b,PennController,64,0,frases,NULL,PennController,65,_Trial_,End,1737655766151,NULL
1737656298,c2a6e53f5f6a5ef01c86cf67ae5c669b,PennController,65,0,frases,NULL,PennController,66,_Trial_,Start,1737655766152,NULL
1737656298,c2a6e53f5f6a5ef01c86cf67ae5c669b,PennController,65,0,frases,NULL,Selector,classificacao,Selection,neutra,1737655771755,negativa;neutra;positiva
1737656298,c2a6e53f5f6a5ef01c86cf67ae5c669b,PennController,65,0,frases,NULL,PennController,66,_Trial_,End,1737655771757,NULL
1737656298,c2a6e53f5f6a5ef01c86cf67ae5c669b,PennController,66,0,frases,NULL,PennController,67,_Trial_,Start,1737655771758,NULL
1737656298,c2a6e53f5f6a5ef01c86cf67ae5c669b,PennController,66,0,frases,NULL,Selector,classificacao,Selection,negativa,1737655775318,negativa;neutra;positiva
1737656298,c2a6e53f5f6a5ef01c86cf67ae5c669b,PennController,66,0,frases,NULL,PennController,67,_Trial_,End,1737655775319,NULL
1737656298,c2a6e53f5f6a5ef01c86cf67ae5c669b,PennController,67,0,frases,NULL,PennController,68,_Trial_,Start,1737655775320,NULL
1737656298,c2a6e53f5f6a5ef01c86cf67ae5c669b,PennController,67,0,frases,NULL,Selector,classificacao,Selection,neutra,1737655777339,negativa;neutra;positiva
1737656298,c2a6e53f5f6a5ef01c86cf67ae5c669b,PennController,67,0,frases,NULL,PennController,68,_Trial_,End,1737655777340,NULL
1737656298,c2a6e53f5f6a5ef01c86cf67ae5c669b,PennController,68,0,frases,NULL,PennController,69,_Trial_,Start,1737655777341,NULL
1737656298,c2a6e53f5f6a5ef01c86cf67ae5c669b,PennController,68,0,frases,NULL,Selector,classificacao,Selection,neutra,1737655790636,negativa;neutra;positiva
1737656298,c2a6e53f5f6a5ef01c86cf67ae5c669b,PennController,68,0,frases,NULL,PennController,69,_Trial_,End,1737655790637,NULL
1737656298,c2a6e53f5f6a5ef01c86cf67ae5c669b,PennController,69,0,frases,NULL,PennController,70,_Trial_,Start,1737655790638,NULL
1737656298,c2a6e53f5f6a5ef01c86cf67ae5c669b,PennController,69,0,frases,NULL,Selector,classificacao,Selection,neutra,1737655799275,negativa;neutra;positiva
1737656298,c2a6e53f5f6a5ef01c86cf67ae5c669b,PennController,69,0,frases,NULL,PennController,70,_Trial_,End,1737655799276,NULL
1737656298,c2a6e53f5f6a5ef01c86cf67ae5c669b,PennController,70,0,frases,NULL,PennController,71,_Trial_,Start,1737655799276,NULL
1737656298,c2a6e53f5f6a5ef01c86cf67ae5c669b,PennController,70,0,frases,NULL,Selector,classificacao,Selection,neutra,1737655813070,negativa;neutra;positiva
1737656298,c2a6e53f5f6a5ef01c86cf67ae5c669b,PennController,70,0,frases,NULL,PennController,71,_Trial_,End,1737655813071,NULL
1737656298,c2a6e53f5f6a5ef01c86cf67ae5c669b,PennController,71,0,frases,NULL,PennController,72,_Trial_,Start,1737655813071,NULL
1737656298,c2a6e53f5f6a5ef01c86cf67ae5c669b,PennController,71,0,frases,NULL,Selector,classificacao,Selection,neutra,1737655815034,negativa;neutra;positiva
1737656298,c2a6e53f5f6a5ef01c86cf67ae5c669b,PennController,71,0,frases,NULL,PennController,72,_Trial_,End,1737655815034,NULL
1737656298,c2a6e53f5f6a5ef01c86cf67ae5c669b,PennController,72,0,frases,NULL,PennController,73,_Trial_,Start,1737655815035,NULL
1737656298,c2a6e53f5f6a5ef01c86cf67ae5c669b,PennController,72,0,frases,NULL,Selector,classificacao,Selection,negativa,1737655819692,negativa;neutra;positiva
1737656298,c2a6e53f5f6a5ef01c86cf67ae5c669b,PennController,72,0,frases,NULL,PennController,73,_Trial_,End,1737655819693,NULL
1737656298,c2a6e53f5f6a5ef01c86cf67ae5c669b,PennController,73,0,frases,NULL,PennController,74,_Trial_,Start,1737655819693,NULL
1737656298,c2a6e53f5f6a5ef01c86cf67ae5c669b,PennController,73,0,frases,NULL,Selector,classificacao,Selection,negativa,1737655823814,negativa;neutra;positiva
1737656298,c2a6e53f5f6a5ef01c86cf67ae5c669b,PennController,73,0,frases,NULL,PennController,74,_Trial_,End,1737655823815,NULL
1737656298,c2a6e53f5f6a5ef01c86cf67ae5c669b,PennController,74,0,frases,NULL,PennController,75,_Trial_,Start,1737655823815,NULL
1737656298,c2a6e53f5f6a5ef01c86cf67ae5c669b,PennController,74,0,frases,NULL,Selector,classificacao,Selection,neutra,1737655831312,negativa;neutra;positiva
1737656298,c2a6e53f5f6a5ef01c86cf67ae5c669b,PennController,74,0,frases,NULL,PennController,75,_Trial_,End,1737655831313,NULL
1737656298,c2a6e53f5f6a5ef01c86cf67ae5c669b,PennController,75,0,frases,NULL,PennController,76,_Trial_,Start,1737655831315,NULL
1737656298,c2a6e53f5f6a5ef01c86cf67ae5c669b,PennController,75,0,frases,NULL,Selector,classificacao,Selection,neutra,1737655834168,negativa;neutra;positiva
1737656298,c2a6e53f5f6a5ef01c86cf67ae5c669b,PennController,75,0,frases,NULL,PennController,76,_Trial_,End,1737655834169,NULL
1737656298,c2a6e53f5f6a5ef01c86cf67ae5c669b,PennController,76,0,frases,NULL,PennController,77,_Trial_,Start,1737655834170,NULL
1737656298,c2a6e53f5f6a5ef01c86cf67ae5c669b,PennController,76,0,frases,NULL,Selector,classificacao,Selection,positiva,1737655844470,negativa;neutra;positiva
1737656298,c2a6e53f5f6a5ef01c86cf67ae5c669b,PennController,76,0,frases,NULL,PennController,77,_Trial_,End,1737655844471,NULL
1737656298,c2a6e53f5f6a5ef01c86cf67ae5c669b,PennController,77,0,frases,NULL,PennController,78,_Trial_,Start,1737655844471,NULL
1737656298,c2a6e53f5f6a5ef01c86cf67ae5c669b,PennController,77,0,frases,NULL,Selector,classificacao,Selection,positiva,1737655850318,negativa;neutra;positiva
1737656298,c2a6e53f5f6a5ef01c86cf67ae5c669b,PennController,77,0,frases,NULL,PennController,78,_Trial_,End,1737655850319,NULL
1737656298,c2a6e53f5f6a5ef01c86cf67ae5c669b,PennController,78,0,frases,NULL,PennController,79,_Trial_,Start,1737655850320,NULL
1737656298,c2a6e53f5f6a5ef01c86cf67ae5c669b,PennController,78,0,frases,NULL,Selector,classificacao,Selection,negativa,1737655854148,negativa;neutra;positiva
1737656298,c2a6e53f5f6a5ef01c86cf67ae5c669b,PennController,78,0,frases,NULL,PennController,79,_Trial_,End,1737655854148,NULL
1737656298,c2a6e53f5f6a5ef01c86cf67ae5c669b,PennController,79,0,frases,NULL,PennController,80,_Trial_,Start,1737655854149,NULL
1737656298,c2a6e53f5f6a5ef01c86cf67ae5c669b,PennController,79,0,frases,NULL,Selector,classificacao,Selection,neutra,1737655858854,negativa;neutra;positiva
1737656298,c2a6e53f5f6a5ef01c86cf67ae5c669b,PennController,79,0,frases,NULL,PennController,80,_Trial_,End,1737655858855,NULL
1737656298,c2a6e53f5f6a5ef01c86cf67ae5c669b,PennController,80,0,frases,NULL,PennController,81,_Trial_,Start,1737655858856,NULL
1737656298,c2a6e53f5f6a5ef01c86cf67ae5c669b,PennController,80,0,frases,NULL,Selector,classificacao,Selection,neutra,1737655864898,negativa;neutra;positiva
1737656298,c2a6e53f5f6a5ef01c86cf67ae5c669b,PennController,80,0,frases,NULL,PennController,81,_Trial_,End,1737655864899,NULL
1737656298,c2a6e53f5f6a5ef01c86cf67ae5c669b,PennController,81,0,frases,NULL,PennController,82,_Trial_,Start,1737655864900,NULL
1737656298,c2a6e53f5f6a5ef01c86cf67ae5c669b,PennController,81,0,frases,NULL,Selector,classificacao,Selection,positiva,1737655873125,negativa;neutra;positiva
1737656298,c2a6e53f5f6a5ef01c86cf67ae5c669b,PennController,81,0,frases,NULL,PennController,82,_Trial_,End,1737655873126,NULL
1737656298,c2a6e53f5f6a5ef01c86cf67ae5c669b,PennController,82,0,frases,NULL,PennController,83,_Trial_,Start,1737655873126,NULL
1737656298,c2a6e53f5f6a5ef01c86cf67ae5c669b,PennController,82,0,frases,NULL,Selector,classificacao,Selection,neutra,1737655878010,negativa;neutra;positiva
1737656298,c2a6e53f5f6a5ef01c86cf67ae5c669b,PennController,82,0,frases,NULL,PennController,83,_Trial_,End,1737655878011,NULL
1737656298,c2a6e53f5f6a5ef01c86cf67ae5c669b,PennController,83,0,frases,NULL,PennController,84,_Trial_,Start,1737655878012,NULL
1737656298,c2a6e53f5f6a5ef01c86cf67ae5c669b,PennController,83,0,frases,NULL,Selector,classificacao,Selection,neutra,1737655883956,negativa;neutra;positiva
1737656298,c2a6e53f5f6a5ef01c86cf67ae5c669b,PennController,83,0,frases,NULL,PennController,84,_Trial_,End,1737655883957,NULL
1737656298,c2a6e53f5f6a5ef01c86cf67ae5c669b,PennController,84,0,frases,NULL,PennController,85,_Trial_,Start,1737655883958,NULL
1737656298,c2a6e53f5f6a5ef01c86cf67ae5c669b,PennController,84,0,frases,NULL,Selector,classificacao,Selection,neutra,1737655889450,negativa;neutra;positiva
1737656298,c2a6e53f5f6a5ef01c86cf67ae5c669b,PennController,84,0,frases,NULL,PennController,85,_Trial_,End,1737655889450,NULL
1737656298,c2a6e53f5f6a5ef01c86cf67ae5c669b,PennController,85,0,frases,NULL,PennController,86,_Trial_,Start,1737655889451,NULL
1737656298,c2a6e53f5f6a5ef01c86cf67ae5c669b,PennController,85,0,frases,NULL,Selector,classificacao,Selection,neutra,1737655891364,negativa;neutra;positiva
1737656298,c2a6e53f5f6a5ef01c86cf67ae5c669b,PennController,85,0,frases,NULL,PennController,86,_Trial_,End,1737655891365,NULL
1737656298,c2a6e53f5f6a5ef01c86cf67ae5c669b,PennController,86,0,frases,NULL,PennController,87,_Trial_,Start,1737655891366,NULL
1737656298,c2a6e53f5f6a5ef01c86cf67ae5c669b,PennController,86,0,frases,NULL,Selector,classificacao,Selection,positiva,1737655916524,negativa;neutra;positiva
1737656298,c2a6e53f5f6a5ef01c86cf67ae5c669b,PennController,86,0,frases,NULL,PennController,87,_Trial_,End,1737655916525,NULL
1737656298,c2a6e53f5f6a5ef01c86cf67ae5c669b,PennController,87,0,frases,NULL,PennController,88,_Trial_,Start,1737655916525,NULL
1737656298,c2a6e53f5f6a5ef01c86cf67ae5c669b,PennController,87,0,frases,NULL,Selector,classificacao,Selection,positiva,1737655920100,negativa;neutra;positiva
1737656298,c2a6e53f5f6a5ef01c86cf67ae5c669b,PennController,87,0,frases,NULL,PennController,88,_Trial_,End,1737655920101,NULL
1737656298,c2a6e53f5f6a5ef01c86cf67ae5c669b,PennController,88,0,frases,NULL,PennController,89,_Trial_,Start,1737655920101,NULL
1737656298,c2a6e53f5f6a5ef01c86cf67ae5c669b,PennController,88,0,frases,NULL,Selector,classificacao,Selection,negativa,1737655923802,negativa;neutra;positiva
1737656298,c2a6e53f5f6a5ef01c86cf67ae5c669b,PennController,88,0,frases,NULL,PennController,89,_Trial_,End,1737655923803,NULL
1737656298,c2a6e53f5f6a5ef01c86cf67ae5c669b,PennController,89,0,frases,NULL,PennController,90,_Trial_,Start,1737655923804,NULL
1737656298,c2a6e53f5f6a5ef01c86cf67ae5c669b,PennController,89,0,frases,NULL,Selector,classificacao,Selection,negativa,1737655931234,negativa;neutra;positiva
1737656298,c2a6e53f5f6a5ef01c86cf67ae5c669b,PennController,89,0,frases,NULL,PennController,90,_Trial_,End,1737655931235,NULL
1737656298,c2a6e53f5f6a5ef01c86cf67ae5c669b,PennController,90,0,frases,NULL,PennController,91,_Trial_,Start,1737655931237,NULL
1737656298,c2a6e53f5f6a5ef01c86cf67ae5c669b,PennController,90,0,frases,NULL,Selector,classificacao,Selection,neutra,1737655937875,negativa;neutra;positiva
